Subject,Age,Handedness,Sex,BlockList.Sample,SubTrial,shapepic,shape_pic,Label,Shape,YesNoResp,CorrectAnswer,Targetprac.RESP,Targetprac.ACC,Targetprac.RT,Target.RESP,Target.ACC,Target.RT,Code,Code1
10,23,right,male,,1,,S.bmp,常人,Bad,No,m,,0,0,,,,,
10,23,right,male,,2,,C.bmp,好人,Normal,No,m,m,1,386,,,,,
10,23,right,male,,3,,C.bmp,常人,Normal,Yes,k,m,0,518,,,,,
10,23,right,male,,4,,C.bmp,常人,Normal,Yes,k,k,1,411,,,,,
10,23,right,male,,5,,S.bmp,坏人,Bad,Yes,k,,0,0,,,,,
10,23,right,male,,6,,T.bmp,好人,Good,Yes,k,k,1,856,,,,,
10,23,right,male,,7,,S.bmp,坏人,Bad,Yes,k,k,1,530,,,,,
10,23,right,male,,8,,T.bmp,好人,Good,Yes,k,m,0,460,,,,,
10,23,right,male,,9,,S.bmp,好人,Bad,No,m,m,1,566,,,,,
10,23,right,male,,10,,C.bmp,坏人,Normal,No,m,m,1,504,,,,,
10,23,right,male,,11,,T.bmp,常人,Good,No,m,m,1,484,,,,,
10,23,right,male,,12,,T.bmp,坏人,Good,No,m,,0,0,,,,,
10,23,right,male,,13,,C.bmp,好人,Normal,No,m,m,1,754,,,,,
10,23,right,male,,14,,C.bmp,常人,Normal,Yes,k,k,1,548,,,,,
10,23,right,male,,15,,T.bmp,常人,Good,No,m,m,1,508,,,,,
10,23,right,male,,16,,T.bmp,好人,Good,Yes,k,,0,0,,,,,
10,23,right,male,,17,,C.bmp,坏人,Normal,No,m,m,1,619,,,,,
10,23,right,male,,18,,T.bmp,坏人,Good,No,m,k,0,905,,,,,
10,23,right,male,,19,,S.bmp,坏人,Bad,Yes,k,k,1,561,,,,,
10,23,right,male,,20,,S.bmp,好人,Bad,No,m,k,0,495,,,,,
10,23,right,male,,21,,S.bmp,常人,Bad,No,m,m,1,806,,,,,
10,23,right,male,,22,,S.bmp,坏人,Bad,Yes,k,,0,0,,,,,
10,23,right,male,,23,,T.bmp,好人,Good,Yes,k,k,1,748,,,,,
10,23,right,male,,24,,C.bmp,常人,Normal,Yes,k,m,0,316,,,,,
10,23,right,male,,25,,S.bmp,常人,Bad,No,m,m,1,701,,,,,
10,23,right,male,,26,,C.bmp,坏人,Normal,No,m,k,0,743,,,,,
10,23,right,male,,27,,T.bmp,好人,Good,Yes,k,,0,0,,,,,
10,23,right,male,,28,,T.bmp,坏人,Good,No,m,k,0,883,,,,,
10,23,right,male,,29,,S.bmp,坏人,Bad,Yes,k,k,1,809,,,,,
10,23,right,male,,30,,S.bmp,坏人,Bad,Yes,k,k,1,459,,,,,
10,23,right,male,,31,,C.bmp,好人,Normal,No,m,m,1,675,,,,,
10,23,right,male,,32,,T.bmp,好人,Good,Yes,k,,0,0,,,,,
10,23,right,male,,33,,C.bmp,常人,Normal,Yes,k,m,0,371,,,,,
10,23,right,male,,34,,C.bmp,常人,Normal,Yes,k,k,1,528,,,,,
10,23,right,male,,35,,T.bmp,常人,Good,No,m,m,1,888,,,,,
10,23,right,male,,36,,S.bmp,好人,Bad,No,m,m,1,510,,,,,
10,23,right,male,,37,,C.bmp,好人,Normal,No,m,k,0,612,,,,,
10,23,right,male,,38,,T.bmp,常人,Good,No,m,m,1,491,,,,,
10,23,right,male,,39,,T.bmp,坏人,Good,No,m,m,1,633,,,,,
10,23,right,male,,40,,C.bmp,坏人,Normal,No,m,m,1,469,,,,,
10,23,right,male,,41,,T.bmp,好人,Good,Yes,k,k,1,911,,,,,
10,23,right,male,,42,,C.bmp,常人,Normal,Yes,k,k,1,939,,,,,
10,23,right,male,,43,,C.bmp,常人,Normal,Yes,k,k,1,505,,,,,
10,23,right,male,,44,,T.bmp,好人,Good,Yes,k,m,0,345,,,,,
10,23,right,male,,45,,S.bmp,坏人,Bad,Yes,k,k,1,909,,,,,
10,23,right,male,,46,,S.bmp,常人,Bad,No,m,m,1,463,,,,,
10,23,right,male,,47,,S.bmp,好人,Bad,No,m,m,1,1003,,,,,
10,23,right,male,,48,,S.bmp,坏人,Bad,Yes,k,k,1,403,,,,,
10,23,right,male,,49,,T.bmp,坏人,Good,No,m,m,1,549,,,,,
10,23,right,male,,50,,T.bmp,常人,Good,No,m,m,1,477,,,,,
10,23,right,male,,51,,S.bmp,常人,Bad,No,m,m,1,527,,,,,
10,23,right,male,,52,,S.bmp,坏人,Bad,Yes,k,k,1,359,,,,,
10,23,right,male,,53,,C.bmp,常人,Normal,Yes,k,k,1,685,,,,,
10,23,right,male,,54,,T.bmp,好人,Good,Yes,k,m,0,451,,,,,
10,23,right,male,,55,,C.bmp,坏人,Normal,No,m,m,1,659,,,,,
10,23,right,male,,56,,T.bmp,好人,Good,Yes,k,k,1,883,,,,,
10,23,right,male,,57,,C.bmp,好人,Normal,No,m,m,1,425,,,,,
10,23,right,male,,58,,S.bmp,好人,Bad,No,m,m,1,945,,,,,
10,23,right,male,,59,,C.bmp,常人,Normal,Yes,k,k,1,317,,,,,
10,23,right,male,,60,,S.bmp,坏人,Bad,Yes,k,k,1,614,,,,,
10,23,right,male,,61,,C.bmp,好人,Normal,No,m,m,1,514,,,,,
10,23,right,male,,62,,T.bmp,坏人,Good,No,m,k,0,903,,,,,
10,23,right,male,,63,,C.bmp,坏人,Normal,No,m,m,1,557,,,,,
10,23,right,male,,64,,S.bmp,好人,Bad,No,m,m,1,705,,,,,
10,23,right,male,,65,,S.bmp,常人,Bad,No,m,m,1,1095,,,,,
10,23,right,male,,66,,C.bmp,常人,Normal,Yes,k,k,1,339,,,,,
10,23,right,male,,67,,S.bmp,坏人,Bad,Yes,k,k,1,499,,,,,
10,23,right,male,,68,,S.bmp,坏人,Bad,Yes,k,k,1,407,,,,,
10,23,right,male,,69,,T.bmp,好人,Good,Yes,k,k,1,445,,,,,
10,23,right,male,,70,,C.bmp,常人,Normal,Yes,k,k,1,343,,,,,
10,23,right,male,,71,,T.bmp,常人,Good,No,m,m,1,535,,,,,
10,23,right,male,,72,,T.bmp,好人,Good,Yes,k,m,0,548,,,,,
10,23,right,male,1,1,S.bmp,,坏人,Bad,Yes,k,,,,k,1,827,5,32
10,23,right,male,1,2,T.bmp,,好人,Good,Yes,k,,,,m,0,511,9,64
10,23,right,male,1,3,C.bmp,,常人,Normal,Yes,k,,,,k,1,489,13,96
10,23,right,male,1,4,S.bmp,,常人,Bad,No,m,,,,k,0,65,3,16
10,23,right,male,1,5,T.bmp,,常人,Good,No,m,,,,,0,0,7,48
10,23,right,male,1,6,C.bmp,,常人,Normal,Yes,k,,,,k,1,947,13,96
10,23,right,male,1,7,S.bmp,,坏人,Bad,Yes,k,,,,k,1,601,5,32
10,23,right,male,1,8,C.bmp,,好人,Normal,No,m,,,,k,0,844,11,80
10,23,right,male,1,9,S.bmp,,好人,Bad,No,m,,,,m,1,516,3,16
10,23,right,male,1,10,C.bmp,,坏人,Normal,No,m,,,,m,1,580,11,80
10,23,right,male,1,11,T.bmp,,坏人,Good,No,m,,,,m,1,372,7,48
10,23,right,male,1,12,T.bmp,,好人,Good,Yes,k,,,,m,0,330,9,64
10,23,right,male,1,13,C.bmp,,常人,Normal,Yes,k,,,,k,1,786,13,96
10,23,right,male,1,14,C.bmp,,好人,Normal,No,m,,,,m,1,775,11,80
10,23,right,male,1,15,S.bmp,,好人,Bad,No,m,,,,m,1,643,3,16
10,23,right,male,1,16,C.bmp,,坏人,Normal,No,m,,,,m,1,543,11,80
10,23,right,male,1,17,T.bmp,,坏人,Good,No,m,,,,m,1,525,7,48
10,23,right,male,1,18,S.bmp,,常人,Bad,No,m,,,,m,1,711,3,16
10,23,right,male,1,19,T.bmp,,好人,Good,Yes,k,,,,k,1,893,9,64
10,23,right,male,1,20,S.bmp,,坏人,Bad,Yes,k,,,,k,1,555,5,32
10,23,right,male,1,21,C.bmp,,常人,Normal,Yes,k,,,,m,0,647,13,96
10,23,right,male,1,22,T.bmp,,好人,Good,Yes,k,,,,k,1,853,9,64
10,23,right,male,1,23,S.bmp,,坏人,Bad,Yes,k,,,,k,1,417,5,32
10,23,right,male,1,24,T.bmp,,常人,Good,No,m,,,,m,1,449,7,48
10,23,right,male,1,25,S.bmp,,好人,Bad,No,m,,,,m,1,631,3,16
10,23,right,male,1,26,T.bmp,,坏人,Good,No,m,,,,m,1,410,7,48
10,23,right,male,1,27,S.bmp,,坏人,Bad,Yes,k,,,,k,1,598,5,32
10,23,right,male,1,28,T.bmp,,好人,Good,Yes,k,,,,k,1,573,9,64
10,23,right,male,1,29,C.bmp,,坏人,Normal,No,m,,,,m,1,557,11,80
10,23,right,male,1,30,C.bmp,,好人,Normal,No,m,,,,m,1,617,11,80
10,23,right,male,1,31,T.bmp,,常人,Good,No,m,,,,m,1,583,7,48
10,23,right,male,1,32,T.bmp,,好人,Good,Yes,k,,,,k,1,441,9,64
10,23,right,male,1,33,S.bmp,,坏人,Bad,Yes,k,,,,k,1,351,5,32
10,23,right,male,1,34,C.bmp,,常人,Normal,Yes,k,,,,m,0,399,13,96
10,23,right,male,1,35,S.bmp,,常人,Bad,No,m,,,,m,1,403,3,16
10,23,right,male,1,36,C.bmp,,常人,Normal,Yes,k,,,,k,1,455,13,96
10,23,right,male,1,37,S.bmp,,坏人,Bad,Yes,k,,,,k,1,855,5,32
10,23,right,male,1,38,T.bmp,,坏人,Good,No,m,,,,m,1,405,7,48
10,23,right,male,1,39,C.bmp,,常人,Normal,Yes,k,,,,k,1,389,13,96
10,23,right,male,1,40,C.bmp,,常人,Normal,Yes,k,,,,k,1,531,13,96
10,23,right,male,1,41,S.bmp,,坏人,Bad,Yes,k,,,,k,1,605,5,32
10,23,right,male,1,42,T.bmp,,好人,Good,Yes,k,,,,k,1,391,9,64
10,23,right,male,1,43,T.bmp,,常人,Good,No,m,,,,k,0,702,7,48
10,23,right,male,1,44,C.bmp,,坏人,Normal,No,m,,,,m,1,417,11,80
10,23,right,male,1,45,S.bmp,,好人,Bad,No,m,,,,m,1,631,3,16
10,23,right,male,1,46,T.bmp,,好人,Good,Yes,k,,,,k,1,611,9,64
10,23,right,male,1,47,C.bmp,,好人,Normal,No,m,,,,m,1,399,11,80
10,23,right,male,1,48,S.bmp,,常人,Bad,No,m,,,,m,1,539,3,16
10,23,right,male,1,49,S.bmp,,坏人,Bad,Yes,k,,,,m,0,903,5,32
10,23,right,male,1,50,S.bmp,,常人,Bad,No,m,,,,m,1,983,3,16
10,23,right,male,1,51,C.bmp,,好人,Normal,No,m,,,,m,1,559,11,80
10,23,right,male,1,52,T.bmp,,坏人,Good,No,m,,,,m,1,539,7,48
10,23,right,male,1,53,S.bmp,,坏人,Bad,Yes,k,,,,k,1,479,5,32
10,23,right,male,1,54,T.bmp,,好人,Good,Yes,k,,,,k,1,675,9,64
10,23,right,male,1,55,T.bmp,,常人,Good,No,m,,,,m,1,369,7,48
10,23,right,male,1,56,C.bmp,,常人,Normal,Yes,k,,,,k,1,377,13,96
10,23,right,male,1,57,T.bmp,,好人,Good,Yes,k,,,,k,1,606,9,64
10,23,right,male,1,58,C.bmp,,常人,Normal,Yes,k,,,,k,1,400,13,96
10,23,right,male,1,59,S.bmp,,好人,Bad,No,m,,,,m,1,634,3,16
10,23,right,male,1,60,C.bmp,,坏人,Normal,No,m,,,,,0,0,11,80
10,23,right,male,1,61,T.bmp,,常人,Good,No,m,,,,m,1,969,7,48
10,23,right,male,1,62,T.bmp,,好人,Good,Yes,k,,,,k,1,623,9,64
10,23,right,male,1,63,S.bmp,,坏人,Bad,Yes,k,,,,k,1,341,5,32
10,23,right,male,1,64,T.bmp,,坏人,Good,No,m,,,,m,1,561,7,48
10,23,right,male,1,65,C.bmp,,坏人,Normal,No,m,,,,,0,0,11,80
10,23,right,male,1,66,T.bmp,,好人,Good,Yes,k,,,,k,1,699,9,64
10,23,right,male,1,67,S.bmp,,常人,Bad,No,m,,,,m,1,706,3,16
10,23,right,male,1,68,C.bmp,,常人,Normal,Yes,k,,,,k,1,310,13,96
10,23,right,male,1,69,C.bmp,,好人,Normal,No,m,,,,k,0,794,11,80
10,23,right,male,1,70,S.bmp,,好人,Bad,No,m,,,,m,1,560,3,16
10,23,right,male,1,71,S.bmp,,坏人,Bad,Yes,k,,,,k,1,498,5,32
10,23,right,male,1,72,C.bmp,,常人,Normal,Yes,k,,,,k,1,360,13,96
10,23,right,male,1,73,S.bmp,,好人,Bad,No,m,,,,m,1,502,3,16
10,23,right,male,1,74,T.bmp,,好人,Good,Yes,k,,,,k,1,730,9,64
10,23,right,male,1,75,T.bmp,,好人,Good,Yes,k,,,,k,1,425,9,64
10,23,right,male,1,76,C.bmp,,常人,Normal,Yes,k,,,,k,1,345,13,96
10,23,right,male,1,77,S.bmp,,常人,Bad,No,m,,,,m,1,497,3,16
10,23,right,male,1,78,C.bmp,,坏人,Normal,No,m,,,,m,1,683,11,80
10,23,right,male,1,79,T.bmp,,坏人,Good,No,m,,,,m,1,441,7,48
10,23,right,male,1,80,T.bmp,,常人,Good,No,m,,,,m,1,485,7,48
10,23,right,male,1,81,S.bmp,,坏人,Bad,Yes,k,,,,m,0,1014,5,32
10,23,right,male,1,82,C.bmp,,常人,Normal,Yes,k,,,,k,1,696,13,96
10,23,right,male,1,83,S.bmp,,坏人,Bad,Yes,k,,,,k,1,364,5,32
10,23,right,male,1,84,C.bmp,,好人,Normal,No,m,,,,m,1,532,11,80
10,23,right,male,1,85,S.bmp,,坏人,Bad,Yes,k,,,,k,1,402,5,32
10,23,right,male,1,86,T.bmp,,好人,Good,Yes,k,,,,k,1,640,9,64
10,23,right,male,1,87,T.bmp,,坏人,Good,No,m,,,,m,1,560,7,48
10,23,right,male,1,88,C.bmp,,常人,Normal,Yes,k,,,,m,0,798,13,96
10,23,right,male,1,89,T.bmp,,好人,Good,Yes,k,,,,k,1,436,9,64
10,23,right,male,1,90,C.bmp,,坏人,Normal,No,m,,,,m,1,464,11,80
10,23,right,male,1,91,S.bmp,,常人,Bad,No,m,,,,m,1,972,3,16
10,23,right,male,1,92,C.bmp,,好人,Normal,No,m,,,,m,1,526,11,80
10,23,right,male,1,93,T.bmp,,常人,Good,No,m,,,,m,1,443,7,48
10,23,right,male,1,94,C.bmp,,常人,Normal,Yes,k,,,,k,1,551,13,96
10,23,right,male,1,95,S.bmp,,坏人,Bad,Yes,k,,,,k,1,413,5,32
10,23,right,male,1,96,S.bmp,,好人,Bad,No,m,,,,m,1,466,3,16
10,23,right,male,1,97,T.bmp,,好人,Good,Yes,k,,,,k,1,338,9,64
10,23,right,male,1,98,S.bmp,,常人,Bad,No,m,,,,m,1,702,3,16
10,23,right,male,1,99,C.bmp,,坏人,Normal,No,m,,,,m,1,640,11,80
10,23,right,male,1,100,T.bmp,,常人,Good,No,m,,,,m,1,350,7,48
10,23,right,male,1,101,S.bmp,,坏人,Bad,Yes,k,,,,m,0,754,5,32
10,23,right,male,1,102,C.bmp,,好人,Normal,No,m,,,,m,1,454,11,80
10,23,right,male,1,103,T.bmp,,坏人,Good,No,m,,,,m,1,440,7,48
10,23,right,male,1,104,S.bmp,,坏人,Bad,Yes,k,,,,k,1,274,5,32
10,23,right,male,1,105,S.bmp,,好人,Bad,No,m,,,,m,1,394,3,16
10,23,right,male,1,106,C.bmp,,常人,Normal,Yes,k,,,,k,1,398,13,96
10,23,right,male,1,107,T.bmp,,好人,Good,Yes,k,,,,k,1,378,9,64
10,23,right,male,1,108,C.bmp,,常人,Normal,Yes,k,,,,,0,0,13,96
10,23,right,male,1,109,T.bmp,,好人,Good,Yes,k,,,,k,1,594,9,64
10,23,right,male,1,110,C.bmp,,常人,Normal,Yes,k,,,,k,1,295,13,96
10,23,right,male,1,111,T.bmp,,坏人,Good,No,m,,,,m,1,418,7,48
10,23,right,male,1,112,S.bmp,,好人,Bad,No,m,,,,m,1,480,3,16
10,23,right,male,1,113,C.bmp,,坏人,Normal,No,m,,,,m,1,580,11,80
10,23,right,male,1,114,C.bmp,,常人,Normal,Yes,k,,,,k,1,476,13,96
10,23,right,male,1,115,S.bmp,,坏人,Bad,Yes,k,,,,k,1,416,5,32
10,23,right,male,1,116,T.bmp,,常人,Good,No,m,,,,m,1,406,7,48
10,23,right,male,1,117,T.bmp,,好人,Good,Yes,k,,,,k,1,616,9,64
10,23,right,male,1,118,C.bmp,,好人,Normal,No,m,,,,m,1,532,11,80
10,23,right,male,1,119,S.bmp,,坏人,Bad,Yes,k,,,,k,1,726,5,32
10,23,right,male,1,120,S.bmp,,常人,Bad,No,m,,,,m,1,444,3,16
10,23,right,male,2,1,S.bmp,,坏人,Bad,Yes,k,,,,k,1,555,5,32
10,23,right,male,2,2,C.bmp,,常人,Normal,Yes,k,,,,m,0,883,13,96
10,23,right,male,2,3,T.bmp,,好人,Good,Yes,k,,,,k,1,338,9,64
10,23,right,male,2,4,S.bmp,,好人,Bad,No,m,,,,m,1,320,3,16
10,23,right,male,2,5,C.bmp,,好人,Normal,No,m,,,,m,1,440,11,80
10,23,right,male,2,6,S.bmp,,坏人,Bad,Yes,k,,,,k,1,388,5,32
10,23,right,male,2,7,T.bmp,,坏人,Good,No,m,,,,m,1,362,7,48
10,23,right,male,2,8,S.bmp,,常人,Bad,No,m,,,,m,1,750,3,16
10,23,right,male,2,9,T.bmp,,常人,Good,No,m,,,,m,1,884,7,48
10,23,right,male,2,10,C.bmp,,常人,Normal,Yes,k,,,,k,1,285,13,96
10,23,right,male,2,11,C.bmp,,坏人,Normal,No,m,,,,m,1,347,11,80
10,23,right,male,2,12,T.bmp,,好人,Good,Yes,k,,,,m,0,863,9,64
10,23,right,male,2,13,T.bmp,,常人,Good,No,m,,,,m,1,479,7,48
10,23,right,male,2,14,S.bmp,,坏人,Bad,Yes,k,,,,k,1,355,5,32
10,23,right,male,2,15,C.bmp,,好人,Normal,No,m,,,,m,1,475,11,80
10,23,right,male,2,16,C.bmp,,常人,Normal,Yes,k,,,,k,1,823,13,96
10,23,right,male,2,17,T.bmp,,好人,Good,Yes,k,,,,k,1,351,9,64
10,23,right,male,2,18,C.bmp,,坏人,Normal,No,m,,,,m,1,353,11,80
10,23,right,male,2,19,S.bmp,,常人,Bad,No,m,,,,m,1,649,3,16
10,23,right,male,2,20,S.bmp,,坏人,Bad,Yes,k,,,,k,1,462,5,32
10,23,right,male,2,21,T.bmp,,坏人,Good,No,m,,,,m,1,332,7,48
10,23,right,male,2,22,T.bmp,,好人,Good,Yes,k,,,,k,1,464,9,64
10,23,right,male,2,23,S.bmp,,好人,Bad,No,m,,,,m,1,376,3,16
10,23,right,male,2,24,C.bmp,,常人,Normal,Yes,k,,,,k,1,365,13,96
10,23,right,male,2,25,C.bmp,,常人,Normal,Yes,k,,,,k,1,485,13,96
10,23,right,male,2,26,S.bmp,,坏人,Bad,Yes,k,,,,k,1,483,5,32
10,23,right,male,2,27,T.bmp,,好人,Good,Yes,k,,,,k,1,325,9,64
10,23,right,male,2,28,S.bmp,,常人,Bad,No,m,,,,m,1,551,3,16
10,23,right,male,2,29,T.bmp,,常人,Good,No,m,,,,m,1,435,7,48
10,23,right,male,2,30,C.bmp,,常人,Normal,Yes,k,,,,k,1,321,13,96
10,23,right,male,2,31,T.bmp,,好人,Good,Yes,k,,,,k,1,365,9,64
10,23,right,male,2,32,T.bmp,,坏人,Good,No,m,,,,m,1,509,7,48
10,23,right,male,2,33,C.bmp,,好人,Normal,No,m,,,,m,1,597,11,80
10,23,right,male,2,34,S.bmp,,好人,Bad,No,m,,,,m,1,585,3,16
10,23,right,male,2,35,S.bmp,,坏人,Bad,Yes,k,,,,k,1,409,5,32
10,23,right,male,2,36,C.bmp,,坏人,Normal,No,m,,,,m,1,589,11,80
10,23,right,male,2,37,T.bmp,,常人,Good,No,m,,,,m,1,445,7,48
10,23,right,male,2,38,S.bmp,,好人,Bad,No,m,,,,m,1,431,3,16
10,23,right,male,2,39,T.bmp,,坏人,Good,No,m,,,,m,1,427,7,48
10,23,right,male,2,40,C.bmp,,坏人,Normal,No,m,,,,m,1,645,11,80
10,23,right,male,2,41,S.bmp,,坏人,Bad,Yes,k,,,,k,1,379,5,32
10,23,right,male,2,42,T.bmp,,好人,Good,Yes,k,,,,k,1,459,9,64
10,23,right,male,2,43,C.bmp,,好人,Normal,No,m,,,,m,1,417,11,80
10,23,right,male,2,44,S.bmp,,坏人,Bad,Yes,k,,,,m,0,871,5,32
10,23,right,male,2,45,C.bmp,,常人,Normal,Yes,k,,,,k,1,339,13,96
10,23,right,male,2,46,T.bmp,,好人,Good,Yes,k,,,,k,1,343,9,64
10,23,right,male,2,47,C.bmp,,常人,Normal,Yes,k,,,,k,1,755,13,96
10,23,right,male,2,48,S.bmp,,常人,Bad,No,m,,,,m,1,335,3,16
10,23,right,male,2,49,C.bmp,,好人,Normal,No,m,,,,m,1,537,11,80
10,23,right,male,2,50,S.bmp,,常人,Bad,No,m,,,,m,1,427,3,16
10,23,right,male,2,51,C.bmp,,常人,Normal,Yes,k,,,,k,1,429,13,96
10,23,right,male,2,52,S.bmp,,坏人,Bad,Yes,k,,,,k,1,351,5,32
10,23,right,male,2,53,S.bmp,,好人,Bad,No,m,,,,m,1,804,3,16
10,23,right,male,2,54,C.bmp,,坏人,Normal,No,m,,,,m,1,502,11,80
10,23,right,male,2,55,T.bmp,,好人,Good,Yes,k,,,,k,1,449,9,64
10,23,right,male,2,56,T.bmp,,坏人,Good,No,m,,,,m,1,535,7,48
10,23,right,male,2,57,C.bmp,,常人,Normal,Yes,k,,,,k,1,393,13,96
10,23,right,male,2,58,T.bmp,,好人,Good,Yes,k,,,,k,1,415,9,64
10,23,right,male,2,59,T.bmp,,常人,Good,No,m,,,,m,1,523,7,48
10,23,right,male,2,60,S.bmp,,坏人,Bad,Yes,k,,,,k,1,407,5,32
10,23,right,male,2,61,T.bmp,,常人,Good,No,m,,,,m,1,885,7,48
10,23,right,male,2,62,S.bmp,,常人,Bad,No,m,,,,m,1,505,3,16
10,23,right,male,2,63,S.bmp,,坏人,Bad,Yes,k,,,,k,1,822,5,32
10,23,right,male,2,64,S.bmp,,好人,Bad,No,m,,,,m,1,428,3,16
10,23,right,male,2,65,C.bmp,,常人,Normal,Yes,k,,,,k,1,480,13,96
10,23,right,male,2,66,T.bmp,,坏人,Good,No,m,,,,m,1,412,7,48
10,23,right,male,2,67,T.bmp,,好人,Good,Yes,k,,,,m,0,498,9,64
10,23,right,male,2,68,C.bmp,,坏人,Normal,No,m,,,,m,1,464,11,80
10,23,right,male,2,69,T.bmp,,好人,Good,Yes,k,,,,k,1,369,9,64
10,23,right,male,2,70,S.bmp,,坏人,Bad,Yes,k,,,,k,1,571,5,32
10,23,right,male,2,71,C.bmp,,好人,Normal,No,m,,,,m,1,561,11,80
10,23,right,male,2,72,C.bmp,,常人,Normal,Yes,k,,,,k,1,341,13,96
10,23,right,male,2,73,C.bmp,,常人,Normal,Yes,k,,,,k,1,449,13,96
10,23,right,male,2,74,T.bmp,,好人,Good,Yes,k,,,,k,1,355,9,64
10,23,right,male,2,75,T.bmp,,好人,Good,Yes,k,,,,k,1,333,9,64
10,23,right,male,2,76,S.bmp,,坏人,Bad,Yes,k,,,,k,1,389,5,32
10,23,right,male,2,77,C.bmp,,好人,Normal,No,m,,,,m,1,378,11,80
10,23,right,male,2,78,T.bmp,,常人,Good,No,m,,,,m,1,774,7,48
10,23,right,male,2,79,S.bmp,,好人,Bad,No,m,,,,m,1,444,3,16
10,23,right,male,2,80,C.bmp,,常人,Normal,Yes,k,,,,k,1,794,13,96
10,23,right,male,2,81,C.bmp,,坏人,Normal,No,m,,,,m,1,472,11,80
10,23,right,male,2,82,S.bmp,,常人,Bad,No,m,,,,m,1,418,3,16
10,23,right,male,2,83,S.bmp,,坏人,Bad,Yes,k,,,,k,1,592,5,32
10,23,right,male,2,84,T.bmp,,坏人,Good,No,m,,,,m,1,400,7,48
10,23,right,male,2,85,T.bmp,,好人,Good,Yes,k,,,,k,1,748,9,64
10,23,right,male,2,86,C.bmp,,坏人,Normal,No,m,,,,m,1,454,11,80
10,23,right,male,2,87,T.bmp,,坏人,Good,No,m,,,,k,0,741,7,48
10,23,right,male,2,88,T.bmp,,好人,Good,Yes,k,,,,k,1,455,9,64
10,23,right,male,2,89,S.bmp,,常人,Bad,No,m,,,,m,1,629,3,16
10,23,right,male,2,90,C.bmp,,好人,Normal,No,m,,,,m,1,567,11,80
10,23,right,male,2,91,S.bmp,,坏人,Bad,Yes,k,,,,k,1,462,5,32
10,23,right,male,2,92,S.bmp,,好人,Bad,No,m,,,,m,1,622,3,16
10,23,right,male,2,93,C.bmp,,常人,Normal,Yes,k,,,,k,1,396,13,96
10,23,right,male,2,94,S.bmp,,坏人,Bad,Yes,k,,,,k,1,1006,5,32
10,23,right,male,2,95,T.bmp,,常人,Good,No,m,,,,m,1,492,7,48
10,23,right,male,2,96,C.bmp,,常人,Normal,Yes,k,,,,k,1,306,13,96
10,23,right,male,2,97,T.bmp,,坏人,Good,No,m,,,,m,1,398,7,48
10,23,right,male,2,98,C.bmp,,常人,Normal,Yes,k,,,,k,1,456,13,96
10,23,right,male,2,99,C.bmp,,常人,Normal,Yes,k,,,,k,1,464,13,96
10,23,right,male,2,100,S.bmp,,常人,Bad,No,m,,,,m,1,426,3,16
10,23,right,male,2,101,S.bmp,,好人,Bad,No,m,,,,m,1,504,3,16
10,23,right,male,2,102,T.bmp,,好人,Good,Yes,k,,,,k,1,400,9,64
10,23,right,male,2,103,T.bmp,,好人,Good,Yes,k,,,,k,1,488,9,64
10,23,right,male,2,104,T.bmp,,常人,Good,No,m,,,,m,1,403,7,48
10,23,right,male,2,105,C.bmp,,好人,Normal,No,m,,,,m,1,864,11,80
10,23,right,male,2,106,S.bmp,,坏人,Bad,Yes,k,,,,k,1,672,5,32
10,23,right,male,2,107,S.bmp,,坏人,Bad,Yes,k,,,,k,1,536,5,32
10,23,right,male,2,108,C.bmp,,坏人,Normal,No,m,,,,m,1,504,11,80
10,23,right,male,2,109,C.bmp,,常人,Normal,Yes,k,,,,k,1,886,13,96
10,23,right,male,2,110,S.bmp,,常人,Bad,No,m,,,,m,1,404,3,16
10,23,right,male,2,111,T.bmp,,常人,Good,No,m,,,,m,1,402,7,48
10,23,right,male,2,112,S.bmp,,坏人,Bad,Yes,k,,,,k,1,424,5,32
10,23,right,male,2,113,S.bmp,,坏人,Bad,Yes,k,,,,k,1,448,5,32
10,23,right,male,2,114,T.bmp,,好人,Good,Yes,k,,,,m,0,430,9,64
10,23,right,male,2,115,C.bmp,,好人,Normal,No,m,,,,m,1,568,11,80
10,23,right,male,2,116,C.bmp,,常人,Normal,Yes,k,,,,k,1,450,13,96
10,23,right,male,2,117,S.bmp,,好人,Bad,No,m,,,,m,1,526,3,16
10,23,right,male,2,118,T.bmp,,好人,Good,Yes,k,,,,k,1,336,9,64
10,23,right,male,2,119,C.bmp,,坏人,Normal,No,m,,,,m,1,440,11,80
10,23,right,male,2,120,T.bmp,,坏人,Good,No,m,,,,m,1,433,7,48
10,23,right,male,3,1,T.bmp,,常人,Good,No,m,,,,m,1,424,7,48
10,23,right,male,3,2,T.bmp,,好人,Good,Yes,k,,,,k,1,342,9,64
10,23,right,male,3,3,S.bmp,,坏人,Bad,Yes,k,,,,k,1,590,5,32
10,23,right,male,3,4,S.bmp,,坏人,Bad,Yes,k,,,,k,1,426,5,32
10,23,right,male,3,5,C.bmp,,好人,Normal,No,m,,,,m,1,450,11,80
10,23,right,male,3,6,C.bmp,,常人,Normal,Yes,k,,,,k,1,376,13,96
10,23,right,male,3,7,T.bmp,,好人,Good,Yes,k,,,,k,1,454,9,64
10,23,right,male,3,8,C.bmp,,常人,Normal,Yes,k,,,,k,1,385,13,96
10,23,right,male,3,9,S.bmp,,常人,Bad,No,m,,,,m,1,503,3,16
10,23,right,male,3,10,T.bmp,,坏人,Good,No,m,,,,m,1,443,7,48
10,23,right,male,3,11,S.bmp,,好人,Bad,No,m,,,,m,1,527,3,16
10,23,right,male,3,12,C.bmp,,坏人,Normal,No,m,,,,m,1,621,11,80
10,23,right,male,3,13,T.bmp,,常人,Good,No,m,,,,m,1,441,7,48
10,23,right,male,3,14,T.bmp,,坏人,Good,No,m,,,,m,1,397,7,48
10,23,right,male,3,15,C.bmp,,好人,Normal,No,m,,,,m,1,563,11,80
10,23,right,male,3,16,C.bmp,,常人,Normal,Yes,k,,,,k,1,450,13,96
10,23,right,male,3,17,T.bmp,,好人,Good,Yes,k,,,,k,1,370,9,64
10,23,right,male,3,18,S.bmp,,坏人,Bad,Yes,k,,,,k,1,360,5,32
10,23,right,male,3,19,C.bmp,,常人,Normal,Yes,k,,,,k,1,362,13,96
10,23,right,male,3,20,C.bmp,,坏人,Normal,No,m,,,,m,1,500,11,80
10,23,right,male,3,21,S.bmp,,常人,Bad,No,m,,,,m,1,452,3,16
10,23,right,male,3,22,T.bmp,,好人,Good,Yes,k,,,,k,1,431,9,64
10,23,right,male,3,23,S.bmp,,好人,Bad,No,m,,,,m,1,479,3,16
10,23,right,male,3,24,S.bmp,,坏人,Bad,Yes,k,,,,k,1,619,5,32
10,23,right,male,3,25,C.bmp,,常人,Normal,Yes,k,,,,k,1,567,13,96
10,23,right,male,3,26,S.bmp,,坏人,Bad,Yes,k,,,,k,1,355,5,32
10,23,right,male,3,27,S.bmp,,好人,Bad,No,m,,,,m,1,415,3,16
10,23,right,male,3,28,T.bmp,,常人,Good,No,m,,,,m,1,441,7,48
10,23,right,male,3,29,C.bmp,,坏人,Normal,No,m,,,,m,1,515,11,80
10,23,right,male,3,30,C.bmp,,好人,Normal,No,m,,,,m,1,433,11,80
10,23,right,male,3,31,T.bmp,,好人,Good,Yes,k,,,,k,1,413,9,64
10,23,right,male,3,32,S.bmp,,坏人,Bad,Yes,k,,,,k,1,535,5,32
10,23,right,male,3,33,C.bmp,,常人,Normal,Yes,k,,,,m,0,707,13,96
10,23,right,male,3,34,T.bmp,,坏人,Good,No,m,,,,m,1,698,7,48
10,23,right,male,3,35,S.bmp,,常人,Bad,No,m,,,,m,1,432,3,16
10,23,right,male,3,36,T.bmp,,好人,Good,Yes,k,,,,k,1,447,9,64
10,23,right,male,3,37,C.bmp,,常人,Normal,Yes,k,,,,k,1,419,13,96
10,23,right,male,3,38,T.bmp,,坏人,Good,No,m,,,,m,1,397,7,48
10,23,right,male,3,39,S.bmp,,常人,Bad,No,m,,,,m,1,453,3,16
10,23,right,male,3,40,C.bmp,,常人,Normal,Yes,k,,,,k,1,349,13,96
10,23,right,male,3,41,T.bmp,,常人,Good,No,m,,,,m,1,381,7,48
10,23,right,male,3,42,T.bmp,,好人,Good,Yes,k,,,,k,1,519,9,64
10,23,right,male,3,43,C.bmp,,好人,Normal,No,m,,,,m,1,365,11,80
10,23,right,male,3,44,C.bmp,,坏人,Normal,No,m,,,,m,1,391,11,80
10,23,right,male,3,45,S.bmp,,好人,Bad,No,m,,,,m,1,715,3,16
10,23,right,male,3,46,S.bmp,,坏人,Bad,Yes,k,,,,k,1,453,5,32
10,23,right,male,3,47,T.bmp,,好人,Good,Yes,k,,,,k,1,885,9,64
10,23,right,male,3,48,S.bmp,,坏人,Bad,Yes,k,,,,k,1,391,5,32
10,23,right,male,3,49,T.bmp,,坏人,Good,No,m,,,,m,1,809,7,48
10,23,right,male,3,50,C.bmp,,常人,Normal,Yes,k,,,,k,1,312,13,96
10,23,right,male,3,51,S.bmp,,坏人,Bad,Yes,k,,,,k,1,620,5,32
10,23,right,male,3,52,S.bmp,,好人,Bad,No,m,,,,m,1,405,3,16
10,23,right,male,3,53,T.bmp,,好人,Good,Yes,k,,,,m,0,421,9,64
10,23,right,male,3,54,S.bmp,,常人,Bad,No,m,,,,m,1,719,3,16
10,23,right,male,3,55,C.bmp,,常人,Normal,Yes,k,,,,k,1,513,13,96
10,23,right,male,3,56,S.bmp,,坏人,Bad,Yes,k,,,,k,1,651,5,32
10,23,right,male,3,57,C.bmp,,坏人,Normal,No,m,,,,m,1,477,11,80
10,23,right,male,3,58,C.bmp,,好人,Normal,No,m,,,,m,1,429,11,80
10,23,right,male,3,59,T.bmp,,常人,Good,No,m,,,,m,1,391,7,48
10,23,right,male,3,60,T.bmp,,好人,Good,Yes,k,,,,k,1,915,9,64
10,23,right,male,3,61,C.bmp,,常人,Normal,Yes,k,,,,k,1,448,13,96
10,23,right,male,3,62,T.bmp,,常人,Good,No,m,,,,m,1,374,7,48
10,23,right,male,3,63,S.bmp,,常人,Bad,No,m,,,,m,1,412,3,16
10,23,right,male,3,64,C.bmp,,好人,Normal,No,m,,,,m,1,590,11,80
10,23,right,male,3,65,S.bmp,,坏人,Bad,Yes,k,,,,k,1,447,5,32
10,23,right,male,3,66,S.bmp,,好人,Bad,No,m,,,,m,1,563,3,16
10,23,right,male,3,67,T.bmp,,好人,Good,Yes,k,,,,k,1,431,9,64
10,23,right,male,3,68,T.bmp,,好人,Good,Yes,k,,,,k,1,841,9,64
10,23,right,male,3,69,C.bmp,,坏人,Normal,No,m,,,,m,1,435,11,80
10,23,right,male,3,70,T.bmp,,坏人,Good,No,m,,,,m,1,419,7,48
10,23,right,male,3,71,S.bmp,,坏人,Bad,Yes,k,,,,k,1,513,5,32
10,23,right,male,3,72,C.bmp,,常人,Normal,Yes,k,,,,k,1,655,13,96
10,23,right,male,3,73,S.bmp,,坏人,Bad,Yes,k,,,,k,1,459,5,32
10,23,right,male,3,74,C.bmp,,坏人,Normal,No,m,,,,m,1,395,11,80
10,23,right,male,3,75,T.bmp,,好人,Good,Yes,k,,,,k,1,384,9,64
10,23,right,male,3,76,C.bmp,,常人,Normal,Yes,k,,,,k,1,340,13,96
10,23,right,male,3,77,C.bmp,,常人,Normal,Yes,k,,,,k,1,408,13,96
10,23,right,male,3,78,S.bmp,,坏人,Bad,Yes,k,,,,k,1,436,5,32
10,23,right,male,3,79,T.bmp,,常人,Good,No,m,,,,m,1,526,7,48
10,23,right,male,3,80,S.bmp,,好人,Bad,No,m,,,,m,1,490,3,16
10,23,right,male,3,81,S.bmp,,常人,Bad,No,m,,,,m,1,450,3,16
10,23,right,male,3,82,C.bmp,,好人,Normal,No,m,,,,m,1,710,11,80
10,23,right,male,3,83,T.bmp,,坏人,Good,No,m,,,,m,1,505,7,48
10,23,right,male,3,84,T.bmp,,好人,Good,Yes,k,,,,k,1,435,9,64
10,23,right,male,3,85,C.bmp,,好人,Normal,No,m,,,,m,1,389,11,80
10,23,right,male,3,86,S.bmp,,坏人,Bad,Yes,k,,,,k,1,467,5,32
10,23,right,male,3,87,T.bmp,,好人,Good,Yes,k,,,,k,1,507,9,64
10,23,right,male,3,88,T.bmp,,好人,Good,Yes,k,,,,k,1,497,9,64
10,23,right,male,3,89,S.bmp,,好人,Bad,No,m,,,,m,1,422,3,16
10,23,right,male,3,90,S.bmp,,常人,Bad,No,m,,,,m,1,654,3,16
10,23,right,male,3,91,T.bmp,,常人,Good,No,m,,,,m,1,505,7,48
10,23,right,male,3,92,C.bmp,,坏人,Normal,No,m,,,,m,1,508,11,80
10,23,right,male,3,93,C.bmp,,常人,Normal,Yes,k,,,,k,1,404,13,96
10,23,right,male,3,94,S.bmp,,坏人,Bad,Yes,k,,,,k,1,764,5,32
10,23,right,male,3,95,C.bmp,,常人,Normal,Yes,k,,,,k,1,426,13,96
10,23,right,male,3,96,T.bmp,,坏人,Good,No,m,,,,m,1,432,7,48
10,23,right,male,3,97,S.bmp,,好人,Bad,No,m,,,,m,1,578,3,16
10,23,right,male,3,98,T.bmp,,坏人,Good,No,m,,,,m,1,482,7,48
10,23,right,male,3,99,C.bmp,,好人,Normal,No,m,,,,m,1,432,11,80
10,23,right,male,3,100,T.bmp,,好人,Good,Yes,k,,,,k,1,373,9,64
10,23,right,male,3,101,S.bmp,,坏人,Bad,Yes,k,,,,k,1,485,5,32
10,23,right,male,3,102,C.bmp,,坏人,Normal,No,m,,,,m,1,481,11,80
10,23,right,male,3,103,C.bmp,,常人,Normal,Yes,k,,,,k,1,546,13,96
10,23,right,male,3,104,C.bmp,,常人,Normal,Yes,k,,,,k,1,430,13,96
10,23,right,male,3,105,T.bmp,,好人,Good,Yes,k,,,,k,1,608,9,64
10,23,right,male,3,106,S.bmp,,常人,Bad,No,m,,,,m,1,436,3,16
10,23,right,male,3,107,S.bmp,,坏人,Bad,Yes,k,,,,k,1,364,5,32
10,23,right,male,3,108,T.bmp,,常人,Good,No,m,,,,k,0,532,7,48
10,23,right,male,3,109,T.bmp,,常人,Good,No,m,,,,m,1,658,7,48
10,23,right,male,3,110,T.bmp,,好人,Good,Yes,k,,,,k,1,424,9,64
10,23,right,male,3,111,S.bmp,,坏人,Bad,Yes,k,,,,k,1,402,5,32
10,23,right,male,3,112,C.bmp,,坏人,Normal,No,m,,,,m,1,786,11,80
10,23,right,male,3,113,T.bmp,,坏人,Good,No,m,,,,m,1,396,7,48
10,23,right,male,3,114,T.bmp,,好人,Good,Yes,k,,,,k,1,354,9,64
10,23,right,male,3,115,C.bmp,,好人,Normal,No,m,,,,m,1,468,11,80
10,23,right,male,3,116,S.bmp,,好人,Bad,No,m,,,,m,1,676,3,16
10,23,right,male,3,117,S.bmp,,常人,Bad,No,m,,,,m,1,438,3,16
10,23,right,male,3,118,C.bmp,,常人,Normal,Yes,k,,,,k,1,768,13,96
10,23,right,male,3,119,S.bmp,,坏人,Bad,Yes,k,,,,k,1,1012,5,32
10,23,right,male,3,120,C.bmp,,常人,Normal,Yes,k,,,,k,1,372,13,96
10,23,right,male,4,1,S.bmp,,坏人,Bad,Yes,k,,,,k,1,540,5,32
10,23,right,male,4,2,T.bmp,,好人,Good,Yes,k,,,,k,1,406,9,64
10,23,right,male,4,3,T.bmp,,常人,Good,No,m,,,,m,1,490,7,48
10,23,right,male,4,4,T.bmp,,好人,Good,Yes,k,,,,k,1,370,9,64
10,23,right,male,4,5,S.bmp,,好人,Bad,No,m,,,,m,1,388,3,16
10,23,right,male,4,6,C.bmp,,常人,Normal,Yes,k,,,,k,1,317,13,96
10,23,right,male,4,7,T.bmp,,坏人,Good,No,m,,,,m,1,363,7,48
10,23,right,male,4,8,C.bmp,,常人,Normal,Yes,k,,,,m,0,521,13,96
10,23,right,male,4,9,S.bmp,,常人,Bad,No,m,,,,m,1,487,3,16
10,23,right,male,4,10,S.bmp,,坏人,Bad,Yes,k,,,,k,1,513,5,32
10,23,right,male,4,11,C.bmp,,坏人,Normal,No,m,,,,m,1,495,11,80
10,23,right,male,4,12,C.bmp,,好人,Normal,No,m,,,,m,1,415,11,80
10,23,right,male,4,13,C.bmp,,常人,Normal,Yes,k,,,,k,1,603,13,96
10,23,right,male,4,14,C.bmp,,常人,Normal,Yes,k,,,,k,1,377,13,96
10,23,right,male,4,15,S.bmp,,坏人,Bad,Yes,k,,,,k,1,371,5,32
10,23,right,male,4,16,S.bmp,,好人,Bad,No,m,,,,m,1,399,3,16
10,23,right,male,4,17,S.bmp,,常人,Bad,No,m,,,,m,1,412,3,16
10,23,right,male,4,18,C.bmp,,坏人,Normal,No,m,,,,m,1,750,11,80
10,23,right,male,4,19,C.bmp,,好人,Normal,No,m,,,,m,1,364,11,80
10,23,right,male,4,20,T.bmp,,常人,Good,No,m,,,,m,1,420,7,48
10,23,right,male,4,21,S.bmp,,坏人,Bad,Yes,k,,,,k,1,411,5,32
10,23,right,male,4,22,T.bmp,,好人,Good,Yes,k,,,,k,1,449,9,64
10,23,right,male,4,23,T.bmp,,坏人,Good,No,m,,,,m,1,613,7,48
10,23,right,male,4,24,T.bmp,,好人,Good,Yes,k,,,,k,1,485,9,64
10,23,right,male,4,25,T.bmp,,好人,Good,Yes,k,,,,k,1,404,9,64
10,23,right,male,4,26,T.bmp,,坏人,Good,No,m,,,,m,1,385,7,48
10,23,right,male,4,27,S.bmp,,好人,Bad,No,m,,,,m,1,381,3,16
10,23,right,male,4,28,T.bmp,,常人,Good,No,m,,,,m,1,373,7,48
10,23,right,male,4,29,S.bmp,,常人,Bad,No,m,,,,m,1,617,3,16
10,23,right,male,4,30,C.bmp,,坏人,Normal,No,m,,,,m,1,609,11,80
10,23,right,male,4,31,C.bmp,,常人,Normal,Yes,k,,,,k,1,463,13,96
10,23,right,male,4,32,C.bmp,,好人,Normal,No,m,,,,m,1,427,11,80
10,23,right,male,4,33,S.bmp,,坏人,Bad,Yes,k,,,,k,1,489,5,32
10,23,right,male,4,34,S.bmp,,坏人,Bad,Yes,k,,,,k,1,414,5,32
10,23,right,male,4,35,C.bmp,,常人,Normal,Yes,k,,,,k,1,369,13,96
10,23,right,male,4,36,T.bmp,,好人,Good,Yes,k,,,,k,1,531,9,64
10,23,right,male,4,37,S.bmp,,坏人,Bad,Yes,k,,,,k,1,355,5,32
10,23,right,male,4,38,T.bmp,,坏人,Good,No,m,,,,m,1,403,7,48
10,23,right,male,4,39,T.bmp,,常人,Good,No,m,,,,m,1,393,7,48
10,23,right,male,4,40,C.bmp,,好人,Normal,No,m,,,,m,1,485,11,80
10,23,right,male,4,41,T.bmp,,好人,Good,Yes,k,,,,m,0,563,9,64
10,23,right,male,4,42,C.bmp,,常人,Normal,Yes,k,,,,k,1,597,13,96
10,23,right,male,4,43,T.bmp,,好人,Good,Yes,k,,,,k,1,451,9,64
10,23,right,male,4,44,C.bmp,,常人,Normal,Yes,k,,,,k,1,475,13,96
10,23,right,male,4,45,S.bmp,,坏人,Bad,Yes,k,,,,k,1,377,5,32
10,23,right,male,4,46,S.bmp,,好人,Bad,No,m,,,,m,1,395,3,16
10,23,right,male,4,47,C.bmp,,坏人,Normal,No,m,,,,m,1,649,11,80
10,23,right,male,4,48,S.bmp,,常人,Bad,No,m,,,,m,1,743,3,16
10,23,right,male,4,49,C.bmp,,常人,Normal,Yes,k,,,,k,1,454,13,96
10,23,right,male,4,50,T.bmp,,常人,Good,No,m,,,,m,1,406,7,48
10,23,right,male,4,51,S.bmp,,好人,Bad,No,m,,,,m,1,428,3,16
10,23,right,male,4,52,S.bmp,,常人,Bad,No,m,,,,m,1,493,3,16
10,23,right,male,4,53,T.bmp,,坏人,Good,No,m,,,,m,1,393,7,48
10,23,right,male,4,54,C.bmp,,常人,Normal,Yes,k,,,,k,1,407,13,96
10,23,right,male,4,55,S.bmp,,坏人,Bad,Yes,k,,,,k,1,533,5,32
10,23,right,male,4,56,S.bmp,,坏人,Bad,Yes,k,,,,k,1,483,5,32
10,23,right,male,4,57,C.bmp,,坏人,Normal,No,m,,,,m,1,409,11,80
10,23,right,male,4,58,T.bmp,,好人,Good,Yes,k,,,,k,1,439,9,64
10,23,right,male,4,59,T.bmp,,好人,Good,Yes,k,,,,k,1,693,9,64
10,23,right,male,4,60,C.bmp,,好人,Normal,No,m,,,,m,1,395,11,80
10,23,right,male,4,61,T.bmp,,好人,Good,Yes,k,,,,k,1,448,9,64
10,23,right,male,4,62,T.bmp,,好人,Good,Yes,k,,,,k,1,406,9,64
10,23,right,male,4,63,T.bmp,,常人,Good,No,m,,,,m,1,400,7,48
10,23,right,male,4,64,T.bmp,,坏人,Good,No,m,,,,m,1,398,7,48
10,23,right,male,4,65,S.bmp,,常人,Bad,No,m,,,,m,1,830,3,16
10,23,right,male,4,66,S.bmp,,好人,Bad,No,m,,,,m,1,531,3,16
10,23,right,male,4,67,S.bmp,,坏人,Bad,Yes,k,,,,k,1,403,5,32
10,23,right,male,4,68,C.bmp,,好人,Normal,No,m,,,,m,1,555,11,80
10,23,right,male,4,69,C.bmp,,常人,Normal,Yes,k,,,,k,1,981,13,96
10,23,right,male,4,70,S.bmp,,坏人,Bad,Yes,k,,,,k,1,743,5,32
10,23,right,male,4,71,C.bmp,,坏人,Normal,No,m,,,,m,1,443,11,80
10,23,right,male,4,72,C.bmp,,常人,Normal,Yes,k,,,,k,1,437,13,96
10,23,right,male,4,73,S.bmp,,坏人,Bad,Yes,k,,,,k,1,347,5,32
10,23,right,male,4,74,S.bmp,,常人,Bad,No,m,,,,m,1,370,3,16
10,23,right,male,4,75,T.bmp,,好人,Good,Yes,k,,,,k,1,466,9,64
10,23,right,male,4,76,C.bmp,,好人,Normal,No,m,,,,m,1,386,11,80
10,23,right,male,4,77,C.bmp,,坏人,Normal,No,m,,,,m,1,824,11,80
10,23,right,male,4,78,C.bmp,,常人,Normal,Yes,k,,,,k,1,358,13,96
10,23,right,male,4,79,C.bmp,,常人,Normal,Yes,k,,,,k,1,420,13,96
10,23,right,male,4,80,T.bmp,,好人,Good,Yes,k,,,,k,1,510,9,64
10,23,right,male,4,81,T.bmp,,常人,Good,No,m,,,,k,0,496,7,48
10,23,right,male,4,82,T.bmp,,坏人,Good,No,m,,,,m,1,426,7,48
10,23,right,male,4,83,S.bmp,,好人,Bad,No,m,,,,m,1,570,3,16
10,23,right,male,4,84,S.bmp,,坏人,Bad,Yes,k,,,,k,1,735,5,32
10,23,right,male,4,85,C.bmp,,常人,Normal,Yes,k,,,,k,1,331,13,96
10,23,right,male,4,86,T.bmp,,常人,Good,No,m,,,,m,1,503,7,48
10,23,right,male,4,87,S.bmp,,坏人,Bad,Yes,k,,,,k,1,439,5,32
10,23,right,male,4,88,C.bmp,,好人,Normal,No,m,,,,m,1,394,11,80
10,23,right,male,4,89,T.bmp,,好人,Good,Yes,k,,,,k,1,464,9,64
10,23,right,male,4,90,S.bmp,,坏人,Bad,Yes,k,,,,k,1,784,5,32
10,23,right,male,4,91,S.bmp,,好人,Bad,No,m,,,,m,1,386,3,16
10,23,right,male,4,92,C.bmp,,常人,Normal,Yes,k,,,,k,1,359,13,96
10,23,right,male,4,93,T.bmp,,好人,Good,Yes,k,,,,k,1,378,9,64
10,23,right,male,4,94,S.bmp,,常人,Bad,No,m,,,,m,1,582,3,16
10,23,right,male,4,95,T.bmp,,坏人,Good,No,m,,,,m,1,528,7,48
10,23,right,male,4,96,C.bmp,,坏人,Normal,No,m,,,,m,1,442,11,80
10,23,right,male,4,97,T.bmp,,好人,Good,Yes,k,,,,k,1,760,9,64
10,23,right,male,4,98,C.bmp,,好人,Normal,No,m,,,,m,1,364,11,80
10,23,right,male,4,99,C.bmp,,坏人,Normal,No,m,,,,m,1,614,11,80
10,23,right,male,4,100,C.bmp,,常人,Normal,Yes,k,,,,k,1,538,13,96
10,23,right,male,4,101,S.bmp,,坏人,Bad,Yes,k,,,,k,1,743,5,32
10,23,right,male,4,102,S.bmp,,好人,Bad,No,m,,,,m,1,611,3,16
10,23,right,male,4,103,S.bmp,,常人,Bad,No,m,,,,m,1,424,3,16
10,23,right,male,4,104,T.bmp,,坏人,Good,No,m,,,,m,1,414,7,48
10,23,right,male,4,105,T.bmp,,常人,Good,No,m,,,,k,0,692,7,48
10,23,right,male,4,106,S.bmp,,坏人,Bad,Yes,k,,,,k,1,798,5,32
10,23,right,male,4,107,C.bmp,,常人,Normal,Yes,k,,,,k,1,370,13,96
10,23,right,male,4,108,T.bmp,,好人,Good,Yes,k,,,,k,1,746,9,64
10,23,right,male,4,109,C.bmp,,好人,Normal,No,m,,,,m,1,436,11,80
10,23,right,male,4,110,S.bmp,,常人,Bad,No,m,,,,m,1,794,3,16
10,23,right,male,4,111,T.bmp,,好人,Good,Yes,k,,,,k,1,410,9,64
10,23,right,male,4,112,T.bmp,,好人,Good,Yes,k,,,,k,1,406,9,64
10,23,right,male,4,113,S.bmp,,坏人,Bad,Yes,k,,,,k,1,526,5,32
10,23,right,male,4,114,C.bmp,,坏人,Normal,No,m,,,,m,1,456,11,80
10,23,right,male,4,115,C.bmp,,常人,Normal,Yes,k,,,,k,1,430,13,96
10,23,right,male,4,116,T.bmp,,常人,Good,No,m,,,,m,1,404,7,48
10,23,right,male,4,117,S.bmp,,坏人,Bad,Yes,k,,,,k,1,417,5,32
10,23,right,male,4,118,T.bmp,,坏人,Good,No,m,,,,m,1,375,7,48
10,23,right,male,4,119,S.bmp,,好人,Bad,No,m,,,,m,1,456,3,16
10,23,right,male,4,120,C.bmp,,常人,Normal,Yes,k,,,,k,1,710,13,96
10,23,right,male,5,1,C.bmp,,常人,Normal,Yes,k,,,,k,1,376,13,96
10,23,right,male,5,2,S.bmp,,坏人,Bad,Yes,k,,,,k,1,410,5,32
10,23,right,male,5,3,C.bmp,,常人,Normal,Yes,k,,,,m,0,494,13,96
10,23,right,male,5,4,C.bmp,,坏人,Normal,No,m,,,,m,1,484,11,80
10,23,right,male,5,5,C.bmp,,好人,Normal,No,m,,,,m,1,405,11,80
10,23,right,male,5,6,S.bmp,,坏人,Bad,Yes,k,,,,k,1,571,5,32
10,23,right,male,5,7,T.bmp,,好人,Good,Yes,k,,,,k,1,431,9,64
10,23,right,male,5,8,T.bmp,,坏人,Good,No,m,,,,m,1,875,7,48
10,23,right,male,5,9,T.bmp,,常人,Good,No,m,,,,m,1,407,7,48
10,23,right,male,5,10,S.bmp,,常人,Bad,No,m,,,,m,1,443,3,16
10,23,right,male,5,11,S.bmp,,好人,Bad,No,m,,,,m,1,867,3,16
10,23,right,male,5,12,T.bmp,,好人,Good,Yes,k,,,,k,1,459,9,64
10,23,right,male,5,13,T.bmp,,好人,Good,Yes,k,,,,k,1,695,9,64
10,23,right,male,5,14,S.bmp,,坏人,Bad,Yes,k,,,,k,1,639,5,32
10,23,right,male,5,15,C.bmp,,坏人,Normal,No,m,,,,m,1,336,11,80
10,23,right,male,5,16,C.bmp,,好人,Normal,No,m,,,,m,1,640,11,80
10,23,right,male,5,17,T.bmp,,坏人,Good,No,m,,,,m,1,378,7,48
10,23,right,male,5,18,T.bmp,,好人,Good,Yes,k,,,,k,1,458,9,64
10,23,right,male,5,19,S.bmp,,好人,Bad,No,m,,,,m,1,786,3,16
10,23,right,male,5,20,C.bmp,,常人,Normal,Yes,k,,,,k,1,353,13,96
10,23,right,male,5,21,T.bmp,,常人,Good,No,m,,,,m,1,401,7,48
10,23,right,male,5,22,S.bmp,,坏人,Bad,Yes,k,,,,k,1,399,5,32
10,23,right,male,5,23,S.bmp,,常人,Bad,No,m,,,,m,1,659,3,16
10,23,right,male,5,24,C.bmp,,常人,Normal,Yes,k,,,,k,1,365,13,96
10,23,right,male,5,25,C.bmp,,好人,Normal,No,m,,,,m,1,669,11,80
10,23,right,male,5,26,T.bmp,,好人,Good,Yes,k,,,,k,1,479,9,64
10,23,right,male,5,27,C.bmp,,坏人,Normal,No,m,,,,m,1,411,11,80
10,23,right,male,5,28,S.bmp,,坏人,Bad,Yes,k,,,,k,1,389,5,32
10,23,right,male,5,29,S.bmp,,坏人,Bad,Yes,k,,,,k,1,489,5,32
10,23,right,male,5,30,S.bmp,,常人,Bad,No,m,,,,m,1,471,3,16
10,23,right,male,5,31,T.bmp,,好人,Good,Yes,k,,,,k,1,373,9,64
10,23,right,male,5,32,C.bmp,,常人,Normal,Yes,k,,,,k,1,376,13,96
10,23,right,male,5,33,C.bmp,,常人,Normal,Yes,k,,,,k,1,356,13,96
10,23,right,male,5,34,T.bmp,,常人,Good,No,m,,,,m,1,379,7,48
10,23,right,male,5,35,T.bmp,,坏人,Good,No,m,,,,k,0,603,7,48
10,23,right,male,5,36,S.bmp,,好人,Bad,No,m,,,,m,1,441,3,16
10,23,right,male,5,37,S.bmp,,好人,Bad,No,m,,,,m,1,375,3,16
10,23,right,male,5,38,S.bmp,,坏人,Bad,Yes,k,,,,k,1,441,5,32
10,23,right,male,5,39,T.bmp,,常人,Good,No,m,,,,m,1,405,7,48
10,23,right,male,5,40,T.bmp,,坏人,Good,No,m,,,,m,1,483,7,48
10,23,right,male,5,41,C.bmp,,常人,Normal,Yes,k,,,,k,1,343,13,96
10,23,right,male,5,42,T.bmp,,好人,Good,Yes,k,,,,k,1,377,9,64
10,23,right,male,5,43,T.bmp,,好人,Good,Yes,k,,,,k,1,401,9,64
10,23,right,male,5,44,C.bmp,,好人,Normal,No,m,,,,m,1,333,11,80
10,23,right,male,5,45,S.bmp,,常人,Bad,No,m,,,,k,0,817,3,16
10,23,right,male,5,46,C.bmp,,常人,Normal,Yes,k,,,,k,1,371,13,96
10,23,right,male,5,47,S.bmp,,坏人,Bad,Yes,k,,,,k,1,531,5,32
10,23,right,male,5,48,C.bmp,,坏人,Normal,No,m,,,,m,1,552,11,80
10,23,right,male,5,49,S.bmp,,坏人,Bad,Yes,k,,,,k,1,454,5,32
10,23,right,male,5,50,S.bmp,,坏人,Bad,Yes,k,,,,k,1,353,5,32
10,23,right,male,5,51,S.bmp,,常人,Bad,No,m,,,,m,1,449,3,16
10,23,right,male,5,52,C.bmp,,常人,Normal,Yes,k,,,,k,1,343,13,96
10,23,right,male,5,53,T.bmp,,常人,Good,No,m,,,,m,1,357,7,48
10,23,right,male,5,54,C.bmp,,坏人,Normal,No,m,,,,m,1,431,11,80
10,23,right,male,5,55,T.bmp,,好人,Good,Yes,k,,,,k,1,385,9,64
10,23,right,male,5,56,C.bmp,,好人,Normal,No,m,,,,m,1,459,11,80
10,23,right,male,5,57,T.bmp,,好人,Good,Yes,k,,,,k,1,537,9,64
10,23,right,male,5,58,T.bmp,,坏人,Good,No,m,,,,m,1,519,7,48
10,23,right,male,5,59,S.bmp,,好人,Bad,No,m,,,,m,1,369,3,16
10,23,right,male,5,60,C.bmp,,常人,Normal,Yes,k,,,,k,1,733,13,96
10,23,right,male,5,61,S.bmp,,好人,Bad,No,m,,,,m,1,424,3,16
10,23,right,male,5,62,T.bmp,,常人,Good,No,m,,,,m,1,384,7,48
10,23,right,male,5,63,C.bmp,,常人,Normal,Yes,k,,,,k,1,812,13,96
10,23,right,male,5,64,S.bmp,,坏人,Bad,Yes,k,,,,k,1,357,5,32
10,23,right,male,5,65,C.bmp,,坏人,Normal,No,m,,,,m,1,399,11,80
10,23,right,male,5,66,S.bmp,,坏人,Bad,Yes,k,,,,k,1,529,5,32
10,23,right,male,5,67,S.bmp,,常人,Bad,No,m,,,,m,1,369,3,16
10,23,right,male,5,68,T.bmp,,好人,Good,Yes,k,,,,k,1,365,9,64
10,23,right,male,5,69,C.bmp,,常人,Normal,Yes,k,,,,k,1,357,13,96
10,23,right,male,5,70,C.bmp,,好人,Normal,No,m,,,,m,1,411,11,80
10,23,right,male,5,71,T.bmp,,坏人,Good,No,m,,,,m,1,427,7,48
10,23,right,male,5,72,T.bmp,,好人,Good,Yes,k,,,,k,1,465,9,64
10,23,right,male,5,73,S.bmp,,坏人,Bad,Yes,k,,,,k,1,422,5,32
10,23,right,male,5,74,C.bmp,,坏人,Normal,No,m,,,,m,1,414,11,80
10,23,right,male,5,75,S.bmp,,常人,Bad,No,m,,,,m,1,576,3,16
10,23,right,male,5,76,C.bmp,,好人,Normal,No,m,,,,m,1,574,11,80
10,23,right,male,5,77,C.bmp,,常人,Normal,Yes,k,,,,k,1,438,13,96
10,23,right,male,5,78,S.bmp,,坏人,Bad,Yes,k,,,,k,1,436,5,32
10,23,right,male,5,79,C.bmp,,常人,Normal,Yes,k,,,,k,1,382,13,96
10,23,right,male,5,80,T.bmp,,好人,Good,Yes,k,,,,k,1,598,9,64
10,23,right,male,5,81,T.bmp,,常人,Good,No,m,,,,m,1,544,7,48
10,23,right,male,5,82,T.bmp,,好人,Good,Yes,k,,,,k,1,416,9,64
10,23,right,male,5,83,T.bmp,,坏人,Good,No,m,,,,m,1,465,7,48
10,23,right,male,5,84,S.bmp,,好人,Bad,No,m,,,,m,1,407,3,16
10,23,right,male,5,85,C.bmp,,常人,Normal,Yes,k,,,,k,1,373,13,96
10,23,right,male,5,86,T.bmp,,坏人,Good,No,m,,,,m,1,405,7,48
10,23,right,male,5,87,T.bmp,,常人,Good,No,m,,,,m,1,384,7,48
10,23,right,male,5,88,C.bmp,,好人,Normal,No,m,,,,m,1,396,11,80
10,23,right,male,5,89,S.bmp,,好人,Bad,No,m,,,,m,1,404,3,16
10,23,right,male,5,90,S.bmp,,坏人,Bad,Yes,k,,,,k,1,422,5,32
10,23,right,male,5,91,T.bmp,,好人,Good,Yes,k,,,,k,1,476,9,64
10,23,right,male,5,92,C.bmp,,坏人,Normal,No,m,,,,m,1,398,11,80
10,23,right,male,5,93,S.bmp,,坏人,Bad,Yes,k,,,,k,1,394,5,32
10,23,right,male,5,94,T.bmp,,好人,Good,Yes,k,,,,k,1,452,9,64
10,23,right,male,5,95,C.bmp,,常人,Normal,Yes,k,,,,k,1,360,13,96
10,23,right,male,5,96,S.bmp,,常人,Bad,No,m,,,,,0,0,3,16
10,23,right,male,5,97,T.bmp,,常人,Good,No,m,,,,m,1,494,7,48
10,23,right,male,5,98,S.bmp,,坏人,Bad,Yes,k,,,,k,1,368,5,32
10,23,right,male,5,99,T.bmp,,好人,Good,Yes,k,,,,k,1,374,9,64
10,23,right,male,5,100,C.bmp,,好人,Normal,No,m,,,,m,1,405,11,80
10,23,right,male,5,101,C.bmp,,坏人,Normal,No,m,,,,m,1,525,11,80
10,23,right,male,5,102,T.bmp,,好人,Good,Yes,k,,,,k,1,444,9,64
10,23,right,male,5,103,C.bmp,,常人,Normal,Yes,k,,,,k,1,451,13,96
10,23,right,male,5,104,C.bmp,,常人,Normal,Yes,k,,,,k,1,477,13,96
10,23,right,male,5,105,T.bmp,,坏人,Good,No,m,,,,m,1,430,7,48
10,23,right,male,5,106,S.bmp,,好人,Bad,No,m,,,,m,1,384,3,16
10,23,right,male,5,107,S.bmp,,坏人,Bad,Yes,k,,,,k,1,594,5,32
10,23,right,male,5,108,S.bmp,,常人,Bad,No,m,,,,m,1,374,3,16
10,23,right,male,5,109,S.bmp,,常人,Bad,No,m,,,,m,1,394,3,16
10,23,right,male,5,110,S.bmp,,坏人,Bad,Yes,k,,,,k,1,668,5,32
10,23,right,male,5,111,C.bmp,,坏人,Normal,No,m,,,,m,1,470,11,80
10,23,right,male,5,112,C.bmp,,好人,Normal,No,m,,,,m,1,408,11,80
10,23,right,male,5,113,S.bmp,,好人,Bad,No,m,,,,m,1,598,3,16
10,23,right,male,5,114,T.bmp,,常人,Good,No,m,,,,m,1,554,7,48
10,23,right,male,5,115,C.bmp,,常人,Normal,Yes,k,,,,k,1,424,13,96
10,23,right,male,5,116,T.bmp,,坏人,Good,No,m,,,,m,1,377,7,48
10,23,right,male,5,117,C.bmp,,常人,Normal,Yes,k,,,,k,1,380,13,96
10,23,right,male,5,118,T.bmp,,好人,Good,Yes,k,,,,k,1,432,9,64
10,23,right,male,5,119,S.bmp,,坏人,Bad,Yes,k,,,,k,1,387,5,32
10,23,right,male,5,120,T.bmp,,好人,Good,Yes,k,,,,k,1,334,9,64
10,23,right,male,6,1,S.bmp,,坏人,Bad,Yes,k,,,,k,1,598,5,32
10,23,right,male,6,2,C.bmp,,坏人,Normal,No,m,,,,m,1,340,11,80
10,23,right,male,6,3,S.bmp,,坏人,Bad,Yes,k,,,,k,1,410,5,32
10,23,right,male,6,4,T.bmp,,好人,Good,Yes,k,,,,k,1,368,9,64
10,23,right,male,6,5,T.bmp,,坏人,Good,No,m,,,,m,1,456,7,48
10,23,right,male,6,6,C.bmp,,好人,Normal,No,m,,,,m,1,421,11,80
10,23,right,male,6,7,T.bmp,,好人,Good,Yes,k,,,,k,1,483,9,64
10,23,right,male,6,8,C.bmp,,常人,Normal,Yes,k,,,,k,1,337,13,96
10,23,right,male,6,9,T.bmp,,常人,Good,No,m,,,,m,1,455,7,48
10,23,right,male,6,10,S.bmp,,好人,Bad,No,m,,,,m,1,415,3,16
10,23,right,male,6,11,S.bmp,,常人,Bad,No,m,,,,m,1,707,3,16
10,23,right,male,6,12,C.bmp,,常人,Normal,Yes,k,,,,k,1,359,13,96
10,23,right,male,6,13,S.bmp,,常人,Bad,No,m,,,,m,1,367,3,16
10,23,right,male,6,14,T.bmp,,好人,Good,Yes,k,,,,k,1,374,9,64
10,23,right,male,6,15,T.bmp,,常人,Good,No,m,,,,m,1,454,7,48
10,23,right,male,6,16,C.bmp,,常人,Normal,Yes,k,,,,k,1,322,13,96
10,23,right,male,6,17,S.bmp,,好人,Bad,No,m,,,,m,1,394,3,16
10,23,right,male,6,18,S.bmp,,坏人,Bad,Yes,k,,,,k,1,318,5,32
10,23,right,male,6,19,C.bmp,,好人,Normal,No,m,,,,m,1,442,11,80
10,23,right,male,6,20,C.bmp,,常人,Normal,Yes,k,,,,k,1,428,13,96
10,23,right,male,6,21,T.bmp,,好人,Good,Yes,k,,,,k,1,527,9,64
10,23,right,male,6,22,S.bmp,,坏人,Bad,Yes,k,,,,k,1,413,5,32
10,23,right,male,6,23,C.bmp,,坏人,Normal,No,m,,,,m,1,419,11,80
10,23,right,male,6,24,T.bmp,,坏人,Good,No,m,,,,m,1,673,7,48
10,23,right,male,6,25,C.bmp,,常人,Normal,Yes,k,,,,k,1,353,13,96
10,23,right,male,6,26,T.bmp,,常人,Good,No,m,,,,k,0,583,7,48
10,23,right,male,6,27,C.bmp,,常人,Normal,Yes,k,,,,k,1,371,13,96
10,23,right,male,6,28,T.bmp,,坏人,Good,No,m,,,,m,1,561,7,48
10,23,right,male,6,29,T.bmp,,好人,Good,Yes,k,,,,k,1,419,9,64
10,23,right,male,6,30,S.bmp,,坏人,Bad,Yes,k,,,,k,1,333,5,32
10,23,right,male,6,31,S.bmp,,好人,Bad,No,m,,,,m,1,389,3,16
10,23,right,male,6,32,T.bmp,,好人,Good,Yes,k,,,,k,1,544,9,64
10,23,right,male,6,33,S.bmp,,常人,Bad,No,m,,,,m,1,754,3,16
10,23,right,male,6,34,C.bmp,,坏人,Normal,No,m,,,,k,0,564,11,80
10,23,right,male,6,35,S.bmp,,坏人,Bad,Yes,k,,,,m,0,597,5,32
10,23,right,male,6,36,C.bmp,,好人,Normal,No,m,,,,m,1,441,11,80
10,23,right,male,6,37,T.bmp,,常人,Good,No,m,,,,m,1,401,7,48
10,23,right,male,6,38,T.bmp,,好人,Good,Yes,k,,,,k,1,475,9,64
10,23,right,male,6,39,S.bmp,,好人,Bad,No,m,,,,m,1,505,3,16
10,23,right,male,6,40,T.bmp,,好人,Good,Yes,k,,,,k,1,529,9,64
10,23,right,male,6,41,C.bmp,,常人,Normal,Yes,k,,,,k,1,353,13,96
10,23,right,male,6,42,T.bmp,,坏人,Good,No,m,,,,m,1,611,7,48
10,23,right,male,6,43,S.bmp,,坏人,Bad,Yes,k,,,,k,1,403,5,32
10,23,right,male,6,44,C.bmp,,常人,Normal,Yes,k,,,,k,1,373,13,96
10,23,right,male,6,45,C.bmp,,好人,Normal,No,m,,,,m,1,525,11,80
10,23,right,male,6,46,S.bmp,,常人,Bad,No,m,,,,m,1,687,3,16
10,23,right,male,6,47,C.bmp,,坏人,Normal,No,m,,,,m,1,355,11,80
10,23,right,male,6,48,S.bmp,,坏人,Bad,Yes,k,,,,k,1,311,5,32
10,23,right,male,6,49,T.bmp,,好人,Good,Yes,k,,,,k,1,329,9,64
10,23,right,male,6,50,T.bmp,,好人,Good,Yes,k,,,,k,1,361,9,64
10,23,right,male,6,51,T.bmp,,常人,Good,No,m,,,,m,1,363,7,48
10,23,right,male,6,52,T.bmp,,坏人,Good,No,m,,,,m,1,517,7,48
10,23,right,male,6,53,C.bmp,,常人,Normal,Yes,k,,,,k,1,440,13,96
10,23,right,male,6,54,C.bmp,,好人,Normal,No,m,,,,m,1,427,11,80
10,23,right,male,6,55,S.bmp,,好人,Bad,No,m,,,,m,1,543,3,16
10,23,right,male,6,56,C.bmp,,常人,Normal,Yes,k,,,,k,1,503,13,96
10,23,right,male,6,57,S.bmp,,坏人,Bad,Yes,k,,,,k,1,463,5,32
10,23,right,male,6,58,S.bmp,,常人,Bad,No,m,,,,m,1,483,3,16
10,23,right,male,6,59,S.bmp,,坏人,Bad,Yes,k,,,,k,1,357,5,32
10,23,right,male,6,60,C.bmp,,坏人,Normal,No,m,,,,m,1,459,11,80
10,23,right,male,6,61,C.bmp,,好人,Normal,No,m,,,,m,1,484,11,80
10,23,right,male,6,62,S.bmp,,坏人,Bad,Yes,k,,,,k,1,440,5,32
10,23,right,male,6,63,S.bmp,,常人,Bad,No,m,,,,m,1,409,3,16
10,23,right,male,6,64,T.bmp,,坏人,Good,No,m,,,,m,1,403,7,48
10,23,right,male,6,65,S.bmp,,好人,Bad,No,m,,,,m,1,447,3,16
10,23,right,male,6,66,C.bmp,,常人,Normal,Yes,k,,,,k,1,561,13,96
10,23,right,male,6,67,T.bmp,,常人,Good,No,m,,,,m,1,365,7,48
10,23,right,male,6,68,S.bmp,,坏人,Bad,Yes,k,,,,k,1,475,5,32
10,23,right,male,6,69,T.bmp,,好人,Good,Yes,k,,,,k,1,395,9,64
10,23,right,male,6,70,C.bmp,,常人,Normal,Yes,k,,,,k,1,359,13,96
10,23,right,male,6,71,C.bmp,,坏人,Normal,No,m,,,,m,1,539,11,80
10,23,right,male,6,72,T.bmp,,好人,Good,Yes,k,,,,k,1,389,9,64
10,23,right,male,6,73,S.bmp,,坏人,Bad,Yes,k,,,,k,1,439,5,32
10,23,right,male,6,74,T.bmp,,好人,Good,Yes,k,,,,k,1,674,9,64
10,23,right,male,6,75,S.bmp,,好人,Bad,No,m,,,,m,1,416,3,16
10,23,right,male,6,76,C.bmp,,常人,Normal,Yes,k,,,,k,1,756,13,96
10,23,right,male,6,77,C.bmp,,好人,Normal,No,m,,,,m,1,346,11,80
10,23,right,male,6,78,C.bmp,,坏人,Normal,No,m,,,,m,1,356,11,80
10,23,right,male,6,79,S.bmp,,坏人,Bad,Yes,k,,,,k,1,400,5,32
10,23,right,male,6,80,T.bmp,,好人,Good,Yes,k,,,,k,1,580,9,64
10,23,right,male,6,81,T.bmp,,常人,Good,No,m,,,,m,1,497,7,48
10,23,right,male,6,82,S.bmp,,常人,Bad,No,m,,,,m,1,515,3,16
10,23,right,male,6,83,T.bmp,,坏人,Good,No,m,,,,m,1,725,7,48
10,23,right,male,6,84,C.bmp,,常人,Normal,Yes,k,,,,k,1,747,13,96
10,23,right,male,6,85,T.bmp,,坏人,Good,No,m,,,,m,1,393,7,48
10,23,right,male,6,86,T.bmp,,常人,Good,No,m,,,,m,1,387,7,48
10,23,right,male,6,87,C.bmp,,常人,Normal,Yes,k,,,,k,1,401,13,96
10,23,right,male,6,88,S.bmp,,好人,Bad,No,m,,,,m,1,526,3,16
10,23,right,male,6,89,S.bmp,,常人,Bad,No,m,,,,m,1,398,3,16
10,23,right,male,6,90,C.bmp,,好人,Normal,No,m,,,,k,0,846,11,80
10,23,right,male,6,91,C.bmp,,坏人,Normal,No,m,,,,m,1,426,11,80
10,23,right,male,6,92,S.bmp,,坏人,Bad,Yes,k,,,,k,1,384,5,32
10,23,right,male,6,93,S.bmp,,坏人,Bad,Yes,k,,,,k,1,448,5,32
10,23,right,male,6,94,C.bmp,,常人,Normal,Yes,k,,,,m,0,450,13,96
10,23,right,male,6,95,T.bmp,,好人,Good,Yes,k,,,,k,1,418,9,64
10,23,right,male,6,96,T.bmp,,好人,Good,Yes,k,,,,k,1,414,9,64
10,23,right,male,6,97,C.bmp,,好人,Normal,No,m,,,,m,1,362,11,80
10,23,right,male,6,98,T.bmp,,好人,Good,Yes,k,,,,k,1,332,9,64
10,23,right,male,6,99,S.bmp,,坏人,Bad,Yes,k,,,,k,1,593,5,32
10,23,right,male,6,100,S.bmp,,坏人,Bad,Yes,k,,,,k,1,393,5,32
10,23,right,male,6,101,T.bmp,,坏人,Good,No,m,,,,m,1,347,7,48
10,23,right,male,6,102,C.bmp,,常人,Normal,Yes,k,,,,k,1,309,13,96
10,23,right,male,6,103,C.bmp,,常人,Normal,Yes,k,,,,k,1,396,13,96
10,23,right,male,6,104,S.bmp,,好人,Bad,No,m,,,,m,1,390,3,16
10,23,right,male,6,105,S.bmp,,常人,Bad,No,m,,,,m,1,606,3,16
10,23,right,male,6,106,T.bmp,,常人,Good,No,m,,,,m,1,342,7,48
10,23,right,male,6,107,T.bmp,,好人,Good,Yes,k,,,,k,1,322,9,64
10,23,right,male,6,108,C.bmp,,坏人,Normal,No,m,,,,m,1,574,11,80
10,23,right,male,6,109,T.bmp,,常人,Good,No,m,,,,m,1,380,7,48
10,23,right,male,6,110,C.bmp,,常人,Normal,Yes,k,,,,k,1,376,13,96
10,23,right,male,6,111,C.bmp,,常人,Normal,Yes,k,,,,k,1,486,13,96
10,23,right,male,6,112,S.bmp,,坏人,Bad,Yes,k,,,,k,1,374,5,32
10,23,right,male,6,113,S.bmp,,常人,Bad,No,m,,,,m,1,558,3,16
10,23,right,male,6,114,C.bmp,,坏人,Normal,No,m,,,,m,1,456,11,80
10,23,right,male,6,115,T.bmp,,好人,Good,Yes,k,,,,k,1,280,9,64
10,23,right,male,6,116,S.bmp,,好人,Bad,No,m,,,,m,1,691,3,16
10,23,right,male,6,117,S.bmp,,坏人,Bad,Yes,k,,,,k,1,374,5,32
10,23,right,male,6,118,C.bmp,,好人,Normal,No,m,,,,m,1,420,11,80
10,23,right,male,6,119,T.bmp,,坏人,Good,No,m,,,,m,1,374,7,48
10,23,right,male,6,120,T.bmp,,好人,Good,Yes,k,,,,k,1,374,9,64
10,23,right,male,7,1,T.bmp,,常人,Good,No,m,,,,m,1,388,7,48
10,23,right,male,7,2,T.bmp,,好人,Good,Yes,k,,,,k,1,340,9,64
10,23,right,male,7,3,S.bmp,,坏人,Bad,Yes,k,,,,k,1,468,5,32
10,23,right,male,7,4,T.bmp,,坏人,Good,No,m,,,,m,1,352,7,48
10,23,right,male,7,5,S.bmp,,坏人,Bad,Yes,k,,,,k,1,434,5,32
10,23,right,male,7,6,C.bmp,,常人,Normal,Yes,k,,,,k,1,740,13,96
10,23,right,male,7,7,C.bmp,,坏人,Normal,No,m,,,,m,1,497,11,80
10,23,right,male,7,8,C.bmp,,好人,Normal,No,m,,,,m,1,411,11,80
10,23,right,male,7,9,S.bmp,,常人,Bad,No,m,,,,m,1,739,3,16
10,23,right,male,7,10,C.bmp,,常人,Normal,Yes,k,,,,k,1,353,13,96
10,23,right,male,7,11,T.bmp,,好人,Good,Yes,k,,,,k,1,783,9,64
10,23,right,male,7,12,S.bmp,,好人,Bad,No,m,,,,m,1,351,3,16
10,23,right,male,7,13,C.bmp,,坏人,Normal,No,m,,,,m,1,334,11,80
10,23,right,male,7,14,C.bmp,,好人,Normal,No,m,,,,m,1,364,11,80
10,23,right,male,7,15,T.bmp,,好人,Good,Yes,k,,,,k,1,506,9,64
10,23,right,male,7,16,T.bmp,,常人,Good,No,m,,,,m,1,486,7,48
10,23,right,male,7,17,S.bmp,,坏人,Bad,Yes,k,,,,k,1,432,5,32
10,23,right,male,7,18,T.bmp,,好人,Good,Yes,k,,,,k,1,350,9,64
10,23,right,male,7,19,S.bmp,,好人,Bad,No,m,,,,m,1,388,3,16
10,23,right,male,7,20,T.bmp,,坏人,Good,No,m,,,,m,1,392,7,48
10,23,right,male,7,21,S.bmp,,坏人,Bad,Yes,k,,,,k,1,413,5,32
10,23,right,male,7,22,S.bmp,,常人,Bad,No,m,,,,m,1,403,3,16
10,23,right,male,7,23,C.bmp,,常人,Normal,Yes,k,,,,k,1,357,13,96
10,23,right,male,7,24,C.bmp,,常人,Normal,Yes,k,,,,k,1,431,13,96
10,23,right,male,7,25,S.bmp,,好人,Bad,No,m,,,,m,1,513,3,16
10,23,right,male,7,26,C.bmp,,好人,Normal,No,m,,,,m,1,433,11,80
10,23,right,male,7,27,C.bmp,,常人,Normal,Yes,k,,,,k,1,395,13,96
10,23,right,male,7,28,T.bmp,,常人,Good,No,m,,,,m,1,415,7,48
10,23,right,male,7,29,T.bmp,,好人,Good,Yes,k,,,,k,1,349,9,64
10,23,right,male,7,30,C.bmp,,常人,Normal,Yes,k,,,,k,1,503,13,96
10,23,right,male,7,31,S.bmp,,坏人,Bad,Yes,k,,,,k,1,422,5,32
10,23,right,male,7,32,T.bmp,,好人,Good,Yes,k,,,,k,1,522,9,64
10,23,right,male,7,33,S.bmp,,常人,Bad,No,m,,,,m,1,424,3,16
10,23,right,male,7,34,T.bmp,,坏人,Good,No,m,,,,m,1,506,7,48
10,23,right,male,7,35,S.bmp,,坏人,Bad,Yes,k,,,,k,1,360,5,32
10,23,right,male,7,36,C.bmp,,坏人,Normal,No,m,,,,m,1,413,11,80
10,23,right,male,7,37,S.bmp,,坏人,Bad,Yes,k,,,,k,1,383,5,32
10,23,right,male,7,38,S.bmp,,好人,Bad,No,m,,,,m,1,383,3,16
10,23,right,male,7,39,C.bmp,,坏人,Normal,No,m,,,,m,1,399,11,80
10,23,right,male,7,40,T.bmp,,常人,Good,No,m,,,,m,1,371,7,48
10,23,right,male,7,41,S.bmp,,常人,Bad,No,m,,,,m,1,667,3,16
10,23,right,male,7,42,C.bmp,,好人,Normal,No,m,,,,m,1,469,11,80
10,23,right,male,7,43,S.bmp,,坏人,Bad,Yes,k,,,,k,1,381,5,32
10,23,right,male,7,44,C.bmp,,常人,Normal,Yes,k,,,,k,1,483,13,96
10,23,right,male,7,45,C.bmp,,常人,Normal,Yes,k,,,,k,1,395,13,96
10,23,right,male,7,46,T.bmp,,好人,Good,Yes,k,,,,k,1,365,9,64
10,23,right,male,7,47,T.bmp,,好人,Good,Yes,k,,,,k,1,357,9,64
10,23,right,male,7,48,T.bmp,,坏人,Good,No,m,,,,m,1,406,7,48
10,23,right,male,7,49,S.bmp,,坏人,Bad,Yes,k,,,,k,1,438,5,32
10,23,right,male,7,50,S.bmp,,坏人,Bad,Yes,k,,,,k,1,401,5,32
10,23,right,male,7,51,C.bmp,,常人,Normal,Yes,k,,,,k,1,419,13,96
10,23,right,male,7,52,T.bmp,,好人,Good,Yes,k,,,,k,1,375,9,64
10,23,right,male,7,53,T.bmp,,常人,Good,No,m,,,,m,1,451,7,48
10,23,right,male,7,54,S.bmp,,常人,Bad,No,m,,,,m,1,417,3,16
10,23,right,male,7,55,S.bmp,,好人,Bad,No,m,,,,m,1,421,3,16
10,23,right,male,7,56,C.bmp,,坏人,Normal,No,m,,,,m,1,413,11,80
10,23,right,male,7,57,C.bmp,,常人,Normal,Yes,k,,,,k,1,407,13,96
10,23,right,male,7,58,C.bmp,,好人,Normal,No,m,,,,m,1,389,11,80
10,23,right,male,7,59,T.bmp,,好人,Good,Yes,k,,,,k,1,487,9,64
10,23,right,male,7,60,T.bmp,,坏人,Good,No,m,,,,m,1,465,7,48
10,23,right,male,7,61,S.bmp,,坏人,Bad,Yes,k,,,,k,1,574,5,32
10,23,right,male,7,62,T.bmp,,好人,Good,Yes,k,,,,k,1,481,9,64
10,23,right,male,7,63,T.bmp,,常人,Good,No,m,,,,m,1,383,7,48
10,23,right,male,7,64,C.bmp,,坏人,Normal,No,m,,,,m,1,581,11,80
10,23,right,male,7,65,C.bmp,,好人,Normal,No,m,,,,m,1,431,11,80
10,23,right,male,7,66,T.bmp,,坏人,Good,No,m,,,,m,1,763,7,48
10,23,right,male,7,67,S.bmp,,坏人,Bad,Yes,k,,,,k,1,379,5,32
10,23,right,male,7,68,C.bmp,,常人,Normal,Yes,k,,,,k,1,347,13,96
10,23,right,male,7,69,S.bmp,,常人,Bad,No,m,,,,m,1,581,3,16
10,23,right,male,7,70,S.bmp,,好人,Bad,No,m,,,,m,1,365,3,16
10,23,right,male,7,71,T.bmp,,好人,Good,Yes,k,,,,k,1,339,9,64
10,23,right,male,7,72,C.bmp,,常人,Normal,Yes,k,,,,k,1,781,13,96
10,23,right,male,7,73,S.bmp,,好人,Bad,No,m,,,,m,1,361,3,16
10,23,right,male,7,74,C.bmp,,坏人,Normal,No,m,,,,m,1,385,11,80
10,23,right,male,7,75,T.bmp,,坏人,Good,No,m,,,,m,1,754,7,48
10,23,right,male,7,76,S.bmp,,坏人,Bad,Yes,k,,,,k,1,352,5,32
10,23,right,male,7,77,C.bmp,,常人,Normal,Yes,k,,,,k,1,390,13,96
10,23,right,male,7,78,S.bmp,,常人,Bad,No,m,,,,m,1,336,3,16
10,23,right,male,7,79,T.bmp,,好人,Good,Yes,k,,,,k,1,346,9,64
10,23,right,male,7,80,C.bmp,,常人,Normal,Yes,k,,,,k,1,365,13,96
10,23,right,male,7,81,T.bmp,,好人,Good,Yes,k,,,,k,1,351,9,64
10,23,right,male,7,82,C.bmp,,好人,Normal,No,m,,,,m,1,375,11,80
10,23,right,male,7,83,T.bmp,,常人,Good,No,m,,,,m,1,463,7,48
10,23,right,male,7,84,S.bmp,,坏人,Bad,Yes,k,,,,k,1,307,5,32
10,23,right,male,7,85,S.bmp,,好人,Bad,No,m,,,,m,1,409,3,16
10,23,right,male,7,86,S.bmp,,坏人,Bad,Yes,k,,,,k,1,563,5,32
10,23,right,male,7,87,C.bmp,,好人,Normal,No,m,,,,m,1,477,11,80
10,23,right,male,7,88,C.bmp,,常人,Normal,Yes,k,,,,k,1,639,13,96
10,23,right,male,7,89,T.bmp,,坏人,Good,No,m,,,,m,1,460,7,48
10,23,right,male,7,90,T.bmp,,好人,Good,Yes,k,,,,k,1,562,9,64
10,23,right,male,7,91,S.bmp,,坏人,Bad,Yes,k,,,,k,1,432,5,32
10,23,right,male,7,92,C.bmp,,坏人,Normal,No,m,,,,m,1,498,11,80
10,23,right,male,7,93,T.bmp,,好人,Good,Yes,k,,,,k,1,460,9,64
10,23,right,male,7,94,S.bmp,,常人,Bad,No,m,,,,m,1,736,3,16
10,23,right,male,7,95,T.bmp,,常人,Good,No,m,,,,m,1,444,7,48
10,23,right,male,7,96,C.bmp,,常人,Normal,Yes,k,,,,k,1,314,13,96
10,23,right,male,7,97,S.bmp,,坏人,Bad,Yes,k,,,,k,1,346,5,32
10,23,right,male,7,98,T.bmp,,好人,Good,Yes,k,,,,k,1,384,9,64
10,23,right,male,7,99,C.bmp,,好人,Normal,No,m,,,,m,1,407,11,80
10,23,right,male,7,100,S.bmp,,好人,Bad,No,m,,,,m,1,479,3,16
10,23,right,male,7,101,S.bmp,,坏人,Bad,Yes,k,,,,k,1,673,5,32
10,23,right,male,7,102,S.bmp,,常人,Bad,No,m,,,,m,1,429,3,16
10,23,right,male,7,103,T.bmp,,常人,Good,No,m,,,,m,1,373,7,48
10,23,right,male,7,104,T.bmp,,好人,Good,Yes,k,,,,k,1,458,9,64
10,23,right,male,7,105,C.bmp,,常人,Normal,Yes,k,,,,k,1,370,13,96
10,23,right,male,7,106,C.bmp,,常人,Normal,Yes,k,,,,k,1,448,13,96
10,23,right,male,7,107,C.bmp,,坏人,Normal,No,m,,,,m,1,470,11,80
10,23,right,male,7,108,T.bmp,,坏人,Good,No,m,,,,m,1,360,7,48
10,23,right,male,7,109,S.bmp,,坏人,Bad,Yes,k,,,,k,1,350,5,32
10,23,right,male,7,110,S.bmp,,常人,Bad,No,m,,,,k,0,458,3,16
10,23,right,male,7,111,C.bmp,,常人,Normal,Yes,k,,,,k,1,496,13,96
10,23,right,male,7,112,C.bmp,,常人,Normal,Yes,k,,,,k,1,460,13,96
10,23,right,male,7,113,T.bmp,,好人,Good,Yes,k,,,,k,1,370,9,64
10,23,right,male,7,114,S.bmp,,好人,Bad,No,m,,,,m,1,548,3,16
10,23,right,male,7,115,C.bmp,,好人,Normal,No,m,,,,m,1,454,11,80
10,23,right,male,7,116,T.bmp,,坏人,Good,No,m,,,,m,1,871,7,48
10,23,right,male,7,117,T.bmp,,常人,Good,No,m,,,,m,1,375,7,48
10,23,right,male,7,118,C.bmp,,坏人,Normal,No,m,,,,m,1,430,11,80
10,23,right,male,7,119,T.bmp,,好人,Good,Yes,k,,,,k,1,616,9,64
10,23,right,male,7,120,S.bmp,,坏人,Bad,Yes,k,,,,m,0,432,5,32
10,23,right,male,8,1,C.bmp,,常人,Normal,Yes,k,,,,k,1,366,13,96
10,23,right,male,8,2,S.bmp,,常人,Bad,No,m,,,,m,1,362,3,16
10,23,right,male,8,3,T.bmp,,常人,Good,No,m,,,,m,1,408,7,48
10,23,right,male,8,4,T.bmp,,好人,Good,Yes,k,,,,k,1,442,9,64
10,23,right,male,8,5,T.bmp,,好人,Good,Yes,k,,,,k,1,376,9,64
10,23,right,male,8,6,T.bmp,,坏人,Good,No,m,,,,m,1,353,7,48
10,23,right,male,8,7,S.bmp,,好人,Bad,No,m,,,,m,1,509,3,16
10,23,right,male,8,8,C.bmp,,常人,Normal,Yes,k,,,,k,1,389,13,96
10,23,right,male,8,9,S.bmp,,坏人,Bad,Yes,k,,,,k,1,653,5,32
10,23,right,male,8,10,C.bmp,,坏人,Normal,No,m,,,,m,1,370,11,80
10,23,right,male,8,11,S.bmp,,坏人,Bad,Yes,k,,,,k,1,416,5,32
10,23,right,male,8,12,C.bmp,,好人,Normal,No,m,,,,m,1,662,11,80
10,23,right,male,8,13,C.bmp,,常人,Normal,Yes,k,,,,k,1,342,13,96
10,23,right,male,8,14,C.bmp,,坏人,Normal,No,m,,,,m,1,394,11,80
10,23,right,male,8,15,S.bmp,,好人,Bad,No,m,,,,m,1,416,3,16
10,23,right,male,8,16,S.bmp,,坏人,Bad,Yes,k,,,,k,1,502,5,32
10,23,right,male,8,17,T.bmp,,好人,Good,Yes,k,,,,k,1,374,9,64
10,23,right,male,8,18,C.bmp,,好人,Normal,No,m,,,,m,1,362,11,80
10,23,right,male,8,19,C.bmp,,常人,Normal,Yes,k,,,,k,1,316,13,96
10,23,right,male,8,20,T.bmp,,好人,Good,Yes,k,,,,k,1,414,9,64
10,23,right,male,8,21,T.bmp,,坏人,Good,No,m,,,,m,1,433,7,48
10,23,right,male,8,22,S.bmp,,常人,Bad,No,m,,,,m,1,409,3,16
10,23,right,male,8,23,T.bmp,,常人,Good,No,m,,,,m,1,761,7,48
10,23,right,male,8,24,S.bmp,,坏人,Bad,Yes,k,,,,k,1,325,5,32
10,23,right,male,8,25,C.bmp,,常人,Normal,Yes,k,,,,k,1,379,13,96
10,23,right,male,8,26,C.bmp,,坏人,Normal,No,m,,,,m,1,401,11,80
10,23,right,male,8,27,T.bmp,,好人,Good,Yes,k,,,,k,1,361,9,64
10,23,right,male,8,28,T.bmp,,好人,Good,Yes,k,,,,k,1,468,9,64
10,23,right,male,8,29,T.bmp,,常人,Good,No,m,,,,m,1,536,7,48
10,23,right,male,8,30,C.bmp,,常人,Normal,Yes,k,,,,k,1,476,13,96
10,23,right,male,8,31,C.bmp,,好人,Normal,No,m,,,,m,1,386,11,80
10,23,right,male,8,32,T.bmp,,坏人,Good,No,m,,,,m,1,386,7,48
10,23,right,male,8,33,S.bmp,,常人,Bad,No,m,,,,m,1,408,3,16
10,23,right,male,8,34,S.bmp,,坏人,Bad,Yes,k,,,,k,1,524,5,32
10,23,right,male,8,35,S.bmp,,好人,Bad,No,m,,,,m,1,385,3,16
10,23,right,male,8,36,S.bmp,,坏人,Bad,Yes,k,,,,k,1,449,5,32
10,23,right,male,8,37,S.bmp,,坏人,Bad,Yes,k,,,,k,1,449,5,32
10,23,right,male,8,38,C.bmp,,常人,Normal,Yes,k,,,,k,1,483,13,96
10,23,right,male,8,39,S.bmp,,好人,Bad,No,m,,,,m,1,403,3,16
10,23,right,male,8,40,T.bmp,,坏人,Good,No,m,,,,m,1,659,7,48
10,23,right,male,8,41,C.bmp,,常人,Normal,Yes,k,,,,k,1,881,13,96
10,23,right,male,8,42,T.bmp,,常人,Good,No,m,,,,m,1,389,7,48
10,23,right,male,8,43,S.bmp,,坏人,Bad,Yes,k,,,,k,1,643,5,32
10,23,right,male,8,44,T.bmp,,好人,Good,Yes,k,,,,k,1,475,9,64
10,23,right,male,8,45,T.bmp,,好人,Good,Yes,k,,,,k,1,435,9,64
10,23,right,male,8,46,C.bmp,,好人,Normal,No,m,,,,m,1,370,11,80
10,23,right,male,8,47,S.bmp,,常人,Bad,No,m,,,,m,1,424,3,16
10,23,right,male,8,48,C.bmp,,坏人,Normal,No,m,,,,m,1,702,11,80
10,23,right,male,8,49,S.bmp,,坏人,Bad,Yes,k,,,,k,1,547,5,32
10,23,right,male,8,50,C.bmp,,常人,Normal,Yes,k,,,,k,1,385,13,96
10,23,right,male,8,51,T.bmp,,常人,Good,No,m,,,,m,1,375,7,48
10,23,right,male,8,52,S.bmp,,坏人,Bad,Yes,k,,,,k,1,517,5,32
10,23,right,male,8,53,C.bmp,,坏人,Normal,No,m,,,,m,1,621,11,80
10,23,right,male,8,54,T.bmp,,好人,Good,Yes,k,,,,k,1,627,9,64
10,23,right,male,8,55,T.bmp,,坏人,Good,No,m,,,,m,1,705,7,48
10,23,right,male,8,56,C.bmp,,好人,Normal,No,m,,,,m,1,389,11,80
10,23,right,male,8,57,C.bmp,,常人,Normal,Yes,k,,,,k,1,369,13,96
10,23,right,male,8,58,S.bmp,,好人,Bad,No,m,,,,m,1,403,3,16
10,23,right,male,8,59,S.bmp,,常人,Bad,No,m,,,,m,1,419,3,16
10,23,right,male,8,60,T.bmp,,好人,Good,Yes,k,,,,k,1,445,9,64
10,23,right,male,8,61,C.bmp,,好人,Normal,No,m,,,,m,1,393,11,80
10,23,right,male,8,62,S.bmp,,坏人,Bad,Yes,k,,,,k,1,361,5,32
10,23,right,male,8,63,T.bmp,,好人,Good,Yes,k,,,,k,1,425,9,64
10,23,right,male,8,64,C.bmp,,常人,Normal,Yes,k,,,,k,1,343,13,96
10,23,right,male,8,65,S.bmp,,常人,Bad,No,m,,,,m,1,411,3,16
10,23,right,male,8,66,S.bmp,,坏人,Bad,Yes,k,,,,k,1,879,5,32
10,23,right,male,8,67,T.bmp,,好人,Good,Yes,k,,,,k,1,607,9,64
10,23,right,male,8,68,T.bmp,,常人,Good,No,m,,,,m,1,539,7,48
10,23,right,male,8,69,S.bmp,,好人,Bad,No,m,,,,m,1,541,3,16
10,23,right,male,8,70,C.bmp,,常人,Normal,Yes,k,,,,k,1,299,13,96
10,23,right,male,8,71,T.bmp,,坏人,Good,No,m,,,,m,1,739,7,48
10,23,right,male,8,72,C.bmp,,坏人,Normal,No,m,,,,m,1,705,11,80
10,23,right,male,8,73,T.bmp,,好人,Good,Yes,k,,,,k,1,317,9,64
10,23,right,male,8,74,C.bmp,,坏人,Normal,No,m,,,,m,1,658,11,80
10,23,right,male,8,75,C.bmp,,常人,Normal,Yes,k,,,,k,1,338,13,96
10,23,right,male,8,76,S.bmp,,好人,Bad,No,m,,,,m,1,494,3,16
10,23,right,male,8,77,T.bmp,,常人,Good,No,m,,,,m,1,377,7,48
10,23,right,male,8,78,S.bmp,,常人,Bad,No,m,,,,m,1,451,3,16
10,23,right,male,8,79,T.bmp,,好人,Good,Yes,k,,,,k,1,531,9,64
10,23,right,male,8,80,S.bmp,,坏人,Bad,Yes,k,,,,k,1,471,5,32
10,23,right,male,8,81,C.bmp,,常人,Normal,Yes,k,,,,k,1,335,13,96
10,23,right,male,8,82,C.bmp,,好人,Normal,No,m,,,,m,1,447,11,80
10,23,right,male,8,83,S.bmp,,坏人,Bad,Yes,k,,,,k,1,499,5,32
10,23,right,male,8,84,T.bmp,,坏人,Good,No,m,,,,m,1,337,7,48
10,23,right,male,8,85,C.bmp,,常人,Normal,Yes,k,,,,m,0,555,13,96
10,23,right,male,8,86,T.bmp,,常人,Good,No,m,,,,m,1,575,7,48
10,23,right,male,8,87,T.bmp,,好人,Good,Yes,k,,,,k,1,403,9,64
10,23,right,male,8,88,S.bmp,,好人,Bad,No,m,,,,m,1,435,3,16
10,23,right,male,8,89,S.bmp,,常人,Bad,No,m,,,,m,1,418,3,16
10,23,right,male,8,90,C.bmp,,常人,Normal,Yes,k,,,,k,1,397,13,96
10,23,right,male,8,91,C.bmp,,好人,Normal,No,m,,,,m,1,578,11,80
10,23,right,male,8,92,S.bmp,,坏人,Bad,Yes,k,,,,k,1,576,5,32
10,23,right,male,8,93,S.bmp,,坏人,Bad,Yes,k,,,,k,1,404,5,32
10,23,right,male,8,94,T.bmp,,好人,Good,Yes,k,,,,k,1,300,9,64
10,23,right,male,8,95,C.bmp,,坏人,Normal,No,m,,,,m,1,413,11,80
10,23,right,male,8,96,T.bmp,,坏人,Good,No,m,,,,m,1,363,7,48
10,23,right,male,8,97,C.bmp,,坏人,Normal,No,m,,,,m,1,371,11,80
10,23,right,male,8,98,T.bmp,,坏人,Good,No,m,,,,m,1,427,7,48
10,23,right,male,8,99,C.bmp,,常人,Normal,Yes,k,,,,k,1,405,13,96
10,23,right,male,8,100,S.bmp,,常人,Bad,No,m,,,,m,1,523,3,16
10,23,right,male,8,101,S.bmp,,好人,Bad,No,m,,,,m,1,487,3,16
10,23,right,male,8,102,T.bmp,,好人,Good,Yes,k,,,,k,1,493,9,64
10,23,right,male,8,103,S.bmp,,坏人,Bad,Yes,k,,,,k,1,471,5,32
10,23,right,male,8,104,S.bmp,,坏人,Bad,Yes,k,,,,k,1,378,5,32
10,23,right,male,8,105,T.bmp,,常人,Good,No,m,,,,m,1,394,7,48
10,23,right,male,8,106,C.bmp,,好人,Normal,No,m,,,,m,1,768,11,80
10,23,right,male,8,107,T.bmp,,好人,Good,Yes,k,,,,k,1,364,9,64
10,23,right,male,8,108,C.bmp,,常人,Normal,Yes,k,,,,k,1,446,13,96
10,23,right,male,8,109,C.bmp,,常人,Normal,Yes,k,,,,k,1,540,13,96
10,23,right,male,8,110,C.bmp,,常人,Normal,Yes,k,,,,k,1,366,13,96
10,23,right,male,8,111,T.bmp,,坏人,Good,No,m,,,,m,1,374,7,48
10,23,right,male,8,112,T.bmp,,好人,Good,Yes,k,,,,k,1,528,9,64
10,23,right,male,8,113,S.bmp,,坏人,Bad,Yes,k,,,,k,1,367,5,32
10,23,right,male,8,114,C.bmp,,坏人,Normal,No,m,,,,m,1,361,11,80
10,23,right,male,8,115,S.bmp,,坏人,Bad,Yes,k,,,,k,1,497,5,32
10,23,right,male,8,116,S.bmp,,好人,Bad,No,m,,,,m,1,355,3,16
10,23,right,male,8,117,C.bmp,,好人,Normal,No,m,,,,m,1,396,11,80
10,23,right,male,8,118,S.bmp,,常人,Bad,No,m,,,,m,1,398,3,16
10,23,right,male,8,119,T.bmp,,常人,Good,No,m,,,,m,1,368,7,48
10,23,right,male,8,120,T.bmp,,好人,Good,Yes,k,,,,k,1,478,9,64
10,23,right,male,9,1,C.bmp,,常人,Normal,Yes,k,,,,k,1,396,13,96
10,23,right,male,9,2,T.bmp,,坏人,Good,No,m,,,,m,1,586,7,48
10,23,right,male,9,3,S.bmp,,坏人,Bad,Yes,k,,,,k,1,318,5,32
10,23,right,male,9,4,S.bmp,,坏人,Bad,Yes,k,,,,k,1,358,5,32
10,23,right,male,9,5,S.bmp,,好人,Bad,No,m,,,,m,1,396,3,16
10,23,right,male,9,6,C.bmp,,坏人,Normal,No,m,,,,m,1,370,11,80
10,23,right,male,9,7,S.bmp,,常人,Bad,No,m,,,,m,1,416,3,16
10,23,right,male,9,8,T.bmp,,好人,Good,Yes,k,,,,k,1,308,9,64
10,23,right,male,9,9,C.bmp,,常人,Normal,Yes,k,,,,m,0,832,13,96
10,23,right,male,9,10,T.bmp,,常人,Good,No,m,,,,m,1,388,7,48
10,23,right,male,9,11,C.bmp,,好人,Normal,No,m,,,,m,1,515,11,80
10,23,right,male,9,12,T.bmp,,好人,Good,Yes,k,,,,k,1,373,9,64
10,23,right,male,9,13,T.bmp,,好人,Good,Yes,k,,,,k,1,656,9,64
10,23,right,male,9,14,C.bmp,,常人,Normal,Yes,k,,,,k,1,354,13,96
10,23,right,male,9,15,C.bmp,,好人,Normal,No,m,,,,m,1,554,11,80
10,23,right,male,9,16,C.bmp,,常人,Normal,Yes,k,,,,k,1,372,13,96
10,23,right,male,9,17,S.bmp,,好人,Bad,No,m,,,,m,1,728,3,16
10,23,right,male,9,18,S.bmp,,坏人,Bad,Yes,k,,,,k,1,376,5,32
10,23,right,male,9,19,T.bmp,,坏人,Good,No,m,,,,m,1,406,7,48
10,23,right,male,9,20,C.bmp,,坏人,Normal,No,m,,,,m,1,410,11,80
10,23,right,male,9,21,S.bmp,,坏人,Bad,Yes,k,,,,k,1,382,5,32
10,23,right,male,9,22,S.bmp,,常人,Bad,No,m,,,,m,1,564,3,16
10,23,right,male,9,23,T.bmp,,好人,Good,Yes,k,,,,k,1,436,9,64
10,23,right,male,9,24,T.bmp,,常人,Good,No,m,,,,m,1,518,7,48
10,23,right,male,9,25,C.bmp,,常人,Normal,Yes,k,,,,k,1,369,13,96
10,23,right,male,9,26,T.bmp,,好人,Good,Yes,k,,,,m,0,629,9,64
10,23,right,male,9,27,C.bmp,,坏人,Normal,No,m,,,,m,1,457,11,80
10,23,right,male,9,28,S.bmp,,常人,Bad,No,m,,,,m,1,743,3,16
10,23,right,male,9,29,C.bmp,,好人,Normal,No,m,,,,m,1,439,11,80
10,23,right,male,9,30,T.bmp,,坏人,Good,No,m,,,,m,1,658,7,48
10,23,right,male,9,31,T.bmp,,好人,Good,Yes,k,,,,k,1,352,9,64
10,23,right,male,9,32,S.bmp,,坏人,Bad,Yes,k,,,,k,1,416,5,32
10,23,right,male,9,33,S.bmp,,坏人,Bad,Yes,k,,,,m,0,550,5,32
10,23,right,male,9,34,C.bmp,,常人,Normal,Yes,k,,,,k,1,500,13,96
10,23,right,male,9,35,S.bmp,,好人,Bad,No,m,,,,m,1,560,3,16
10,23,right,male,9,36,T.bmp,,常人,Good,No,m,,,,m,1,378,7,48
10,23,right,male,9,37,S.bmp,,好人,Bad,No,m,,,,m,1,394,3,16
10,23,right,male,9,38,T.bmp,,好人,Good,Yes,k,,,,k,1,368,9,64
10,23,right,male,9,39,T.bmp,,常人,Good,No,m,,,,m,1,383,7,48
10,23,right,male,9,40,C.bmp,,坏人,Normal,No,m,,,,m,1,391,11,80
10,23,right,male,9,41,C.bmp,,常人,Normal,Yes,k,,,,k,1,555,13,96
10,23,right,male,9,42,C.bmp,,好人,Normal,No,m,,,,m,1,693,11,80
10,23,right,male,9,43,S.bmp,,常人,Bad,No,m,,,,m,1,649,3,16
10,23,right,male,9,44,T.bmp,,好人,Good,Yes,k,,,,k,1,425,9,64
10,23,right,male,9,45,S.bmp,,坏人,Bad,Yes,k,,,,k,1,807,5,32
10,23,right,male,9,46,S.bmp,,坏人,Bad,Yes,k,,,,k,1,641,5,32
10,23,right,male,9,47,T.bmp,,坏人,Good,No,m,,,,m,1,381,7,48
10,23,right,male,9,48,C.bmp,,常人,Normal,Yes,k,,,,k,1,566,13,96
10,23,right,male,9,49,T.bmp,,好人,Good,Yes,k,,,,k,1,766,9,64
10,23,right,male,9,50,S.bmp,,坏人,Bad,Yes,k,,,,k,1,376,5,32
10,23,right,male,9,51,T.bmp,,坏人,Good,No,m,,,,m,1,316,7,48
10,23,right,male,9,52,C.bmp,,好人,Normal,No,m,,,,m,1,346,11,80
10,23,right,male,9,53,S.bmp,,常人,Bad,No,m,,,,m,1,710,3,16
10,23,right,male,9,54,T.bmp,,好人,Good,Yes,k,,,,k,1,311,9,64
10,23,right,male,9,55,S.bmp,,坏人,Bad,Yes,k,,,,k,1,335,5,32
10,23,right,male,9,56,S.bmp,,好人,Bad,No,m,,,,m,1,365,3,16
10,23,right,male,9,57,C.bmp,,坏人,Normal,No,m,,,,m,1,315,11,80
10,23,right,male,9,58,C.bmp,,常人,Normal,Yes,k,,,,k,1,319,13,96
10,23,right,male,9,59,T.bmp,,常人,Good,No,m,,,,m,1,415,7,48
10,23,right,male,9,60,C.bmp,,常人,Normal,Yes,k,,,,k,1,333,13,96
10,23,right,male,9,61,C.bmp,,坏人,Normal,No,m,,,,m,1,665,11,80
10,23,right,male,9,62,S.bmp,,坏人,Bad,Yes,k,,,,k,1,450,5,32
10,23,right,male,9,63,C.bmp,,常人,Normal,Yes,k,,,,k,1,972,13,96
10,23,right,male,9,64,C.bmp,,常人,Normal,Yes,k,,,,k,1,491,13,96
10,23,right,male,9,65,C.bmp,,好人,Normal,No,m,,,,m,1,407,11,80
10,23,right,male,9,66,S.bmp,,坏人,Bad,Yes,k,,,,k,1,721,5,32
10,23,right,male,9,67,T.bmp,,常人,Good,No,m,,,,m,1,359,7,48
10,23,right,male,9,68,T.bmp,,坏人,Good,No,m,,,,m,1,555,7,48
10,23,right,male,9,69,T.bmp,,好人,Good,Yes,k,,,,k,1,329,9,64
10,23,right,male,9,70,S.bmp,,常人,Bad,No,m,,,,m,1,747,3,16
10,23,right,male,9,71,S.bmp,,好人,Bad,No,m,,,,m,1,577,3,16
10,23,right,male,9,72,T.bmp,,好人,Good,Yes,k,,,,k,1,557,9,64
10,23,right,male,9,73,C.bmp,,常人,Normal,Yes,k,,,,k,1,375,13,96
10,23,right,male,9,74,T.bmp,,坏人,Good,No,m,,,,m,1,391,7,48
10,23,right,male,9,75,C.bmp,,好人,Normal,No,m,,,,m,1,705,11,80
10,23,right,male,9,76,S.bmp,,坏人,Bad,Yes,k,,,,k,1,643,5,32
10,23,right,male,9,77,S.bmp,,坏人,Bad,Yes,k,,,,k,1,421,5,32
10,23,right,male,9,78,T.bmp,,好人,Good,Yes,k,,,,k,1,372,9,64
10,23,right,male,9,79,T.bmp,,好人,Good,Yes,k,,,,k,1,408,9,64
10,23,right,male,9,80,C.bmp,,常人,Normal,Yes,k,,,,k,1,559,13,96
10,23,right,male,9,81,T.bmp,,常人,Good,No,m,,,,m,1,411,7,48
10,23,right,male,9,82,C.bmp,,坏人,Normal,No,m,,,,m,1,429,11,80
10,23,right,male,9,83,S.bmp,,好人,Bad,No,m,,,,k,0,877,3,16
10,23,right,male,9,84,S.bmp,,常人,Bad,No,m,,,,m,1,559,3,16
10,23,right,male,9,85,C.bmp,,常人,Normal,Yes,k,,,,k,1,471,13,96
10,23,right,male,9,86,T.bmp,,好人,Good,Yes,k,,,,k,1,565,9,64
10,23,right,male,9,87,T.bmp,,坏人,Good,No,m,,,,m,1,387,7,48
10,23,right,male,9,88,T.bmp,,好人,Good,Yes,k,,,,k,1,515,9,64
10,23,right,male,9,89,C.bmp,,常人,Normal,Yes,k,,,,m,0,433,13,96
10,23,right,male,9,90,S.bmp,,坏人,Bad,Yes,k,,,,k,1,425,5,32
10,23,right,male,9,91,S.bmp,,常人,Bad,No,m,,,,m,1,401,3,16
10,23,right,male,9,92,T.bmp,,常人,Good,No,m,,,,m,1,385,7,48
10,23,right,male,9,93,C.bmp,,好人,Normal,No,m,,,,m,1,374,11,80
10,23,right,male,9,94,C.bmp,,坏人,Normal,No,m,,,,m,1,496,11,80
10,23,right,male,9,95,S.bmp,,坏人,Bad,Yes,k,,,,k,1,390,5,32
10,23,right,male,9,96,S.bmp,,好人,Bad,No,m,,,,m,1,612,3,16
10,23,right,male,9,97,S.bmp,,坏人,Bad,Yes,k,,,,k,1,364,5,32
10,23,right,male,9,98,S.bmp,,坏人,Bad,Yes,k,,,,k,1,426,5,32
10,23,right,male,9,99,S.bmp,,常人,Bad,No,m,,,,m,1,361,3,16
10,23,right,male,9,100,C.bmp,,坏人,Normal,No,m,,,,m,1,375,11,80
10,23,right,male,9,101,S.bmp,,好人,Bad,No,m,,,,m,1,499,3,16
10,23,right,male,9,102,T.bmp,,好人,Good,Yes,k,,,,k,1,299,9,64
10,23,right,male,9,103,C.bmp,,好人,Normal,No,m,,,,m,1,523,11,80
10,23,right,male,9,104,T.bmp,,常人,Good,No,m,,,,m,1,359,7,48
10,23,right,male,9,105,T.bmp,,好人,Good,Yes,k,,,,k,1,505,9,64
10,23,right,male,9,106,C.bmp,,常人,Normal,Yes,k,,,,k,1,349,13,96
10,23,right,male,9,107,T.bmp,,坏人,Good,No,m,,,,m,1,372,7,48
10,23,right,male,9,108,C.bmp,,常人,Normal,Yes,k,,,,k,1,644,13,96
10,23,right,male,9,109,T.bmp,,好人,Good,Yes,k,,,,k,1,574,9,64
10,23,right,male,9,110,T.bmp,,坏人,Good,No,m,,,,m,1,398,7,48
10,23,right,male,9,111,S.bmp,,坏人,Bad,Yes,k,,,,k,1,446,5,32
10,23,right,male,9,112,S.bmp,,常人,Bad,No,m,,,,k,0,361,3,16
10,23,right,male,9,113,T.bmp,,好人,Good,Yes,k,,,,k,1,538,9,64
10,23,right,male,9,114,S.bmp,,好人,Bad,No,m,,,,m,1,362,3,16
10,23,right,male,9,115,C.bmp,,好人,Normal,No,m,,,,m,1,438,11,80
10,23,right,male,9,116,C.bmp,,常人,Normal,Yes,k,,,,k,1,311,13,96
10,23,right,male,9,117,T.bmp,,常人,Good,No,m,,,,m,1,373,7,48
10,23,right,male,9,118,S.bmp,,坏人,Bad,Yes,k,,,,k,1,431,5,32
10,23,right,male,9,119,C.bmp,,坏人,Normal,No,m,,,,m,1,307,11,80
10,23,right,male,9,120,C.bmp,,常人,Normal,Yes,k,,,,k,1,285,13,96
11,26,right,male,,1,,C.bmp,常人,Bad,No,k,,0,0,,,,,
11,26,right,male,,2,,S.bmp,好人,Good,Yes,m,m,1,566,,,,,
11,26,right,male,,3,,S.bmp,好人,Good,Yes,m,m,1,452,,,,,
11,26,right,male,,4,,S.bmp,坏人,Good,No,k,,0,0,,,,,
11,26,right,male,,5,,T.bmp,常人,Normal,Yes,m,,0,0,,,,,
11,26,right,male,,6,,C.bmp,好人,Bad,No,k,k,1,1008,,,,,
11,26,right,male,,7,,T.bmp,坏人,Normal,No,k,,0,0,,,,,
11,26,right,male,,8,,S.bmp,常人,Good,No,k,k,1,946,,,,,
11,26,right,male,,9,,T.bmp,常人,Normal,Yes,m,m,1,698,,,,,
11,26,right,male,,10,,T.bmp,好人,Normal,No,k,k,1,770,,,,,
11,26,right,male,,11,,C.bmp,坏人,Bad,Yes,m,m,1,757,,,,,
11,26,right,male,,12,,C.bmp,坏人,Bad,Yes,m,m,1,1069,,,,,
11,26,right,male,,13,,C.bmp,坏人,Bad,Yes,m,m,1,1083,,,,,
11,26,right,male,,14,,S.bmp,坏人,Good,No,k,k,1,807,,,,,
11,26,right,male,,15,,T.bmp,常人,Normal,Yes,m,k,0,906,,,,,
11,26,right,male,,16,,C.bmp,坏人,Bad,Yes,m,m,1,692,,,,,
11,26,right,male,,17,,T.bmp,坏人,Normal,No,k,k,1,1068,,,,,
11,26,right,male,,18,,T.bmp,常人,Normal,Yes,m,m,1,798,,,,,
11,26,right,male,,19,,C.bmp,常人,Bad,No,k,k,1,816,,,,,
11,26,right,male,,20,,S.bmp,好人,Good,Yes,m,m,1,522,,,,,
11,26,right,male,,21,,S.bmp,好人,Good,Yes,m,m,1,606,,,,,
11,26,right,male,,22,,T.bmp,好人,Normal,No,k,m,0,498,,,,,
11,26,right,male,,23,,C.bmp,好人,Bad,No,k,k,1,702,,,,,
11,26,right,male,,24,,S.bmp,常人,Good,No,k,,0,0,,,,,
11,26,right,male,,25,,T.bmp,坏人,Normal,No,k,k,1,531,,,,,
11,26,right,male,,26,,C.bmp,坏人,Bad,Yes,m,m,1,799,,,,,
11,26,right,male,,27,,C.bmp,坏人,Bad,Yes,m,,0,0,,,,,
11,26,right,male,,28,,T.bmp,常人,Normal,Yes,m,k,0,755,,,,,
11,26,right,male,,29,,S.bmp,好人,Good,Yes,m,m,1,514,,,,,
11,26,right,male,,30,,C.bmp,好人,Bad,No,k,m,0,514,,,,,
11,26,right,male,,31,,T.bmp,好人,Normal,No,k,k,1,656,,,,,
11,26,right,male,,32,,S.bmp,坏人,Good,No,k,k,1,760,,,,,
11,26,right,male,,33,,S.bmp,常人,Good,No,k,k,1,700,,,,,
11,26,right,male,,34,,T.bmp,常人,Normal,Yes,m,,0,0,,,,,
11,26,right,male,,35,,C.bmp,常人,Bad,No,k,k,1,531,,,,,
11,26,right,male,,36,,S.bmp,好人,Good,Yes,m,m,1,581,,,,,
11,26,right,male,,37,,T.bmp,常人,Normal,Yes,m,m,1,833,,,,,
11,26,right,male,,38,,T.bmp,好人,Normal,No,k,k,1,657,,,,,
11,26,right,male,,39,,S.bmp,好人,Good,Yes,m,m,1,493,,,,,
11,26,right,male,,40,,S.bmp,常人,Good,No,k,k,1,859,,,,,
11,26,right,male,,41,,C.bmp,常人,Bad,No,k,k,1,555,,,,,
11,26,right,male,,42,,T.bmp,坏人,Normal,No,k,k,1,565,,,,,
11,26,right,male,,43,,C.bmp,坏人,Bad,Yes,m,m,1,842,,,,,
11,26,right,male,,44,,S.bmp,好人,Good,Yes,m,m,1,714,,,,,
11,26,right,male,,45,,C.bmp,好人,Bad,No,k,k,1,728,,,,,
11,26,right,male,,46,,T.bmp,常人,Normal,Yes,m,m,1,613,,,,,
11,26,right,male,,47,,S.bmp,坏人,Good,No,k,k,1,603,,,,,
11,26,right,male,,48,,C.bmp,坏人,Bad,Yes,m,m,1,517,,,,,
11,26,right,male,1,1,T.bmp,,好人,Normal,No,k,,,,k,1,527,11,80
11,26,right,male,1,2,T.bmp,,常人,Normal,Yes,m,,,,m,1,429,13,96
11,26,right,male,1,3,S.bmp,,常人,Good,No,k,,,,k,1,451,7,48
11,26,right,male,1,4,C.bmp,,坏人,Bad,Yes,m,,,,m,1,341,5,32
11,26,right,male,1,5,S.bmp,,坏人,Good,No,k,,,,k,1,465,7,48
11,26,right,male,1,6,C.bmp,,坏人,Bad,Yes,m,,,,m,1,491,5,32
11,26,right,male,1,7,T.bmp,,坏人,Normal,No,k,,,,k,1,591,11,80
11,26,right,male,1,8,S.bmp,,好人,Good,Yes,m,,,,m,1,373,9,64
11,26,right,male,1,9,C.bmp,,常人,Bad,No,k,,,,k,1,491,3,16
11,26,right,male,1,10,T.bmp,,常人,Normal,Yes,m,,,,m,1,497,13,96
11,26,right,male,1,11,S.bmp,,好人,Good,Yes,m,,,,m,1,423,9,64
11,26,right,male,1,12,C.bmp,,好人,Bad,No,k,,,,m,0,381,3,16
11,26,right,male,1,13,T.bmp,,好人,Normal,No,k,,,,k,1,541,11,80
11,26,right,male,1,14,C.bmp,,常人,Bad,No,k,,,,k,1,468,3,16
11,26,right,male,1,15,S.bmp,,好人,Good,Yes,m,,,,m,1,508,9,64
11,26,right,male,1,16,T.bmp,,常人,Normal,Yes,m,,,,k,0,784,13,96
11,26,right,male,1,17,C.bmp,,坏人,Bad,Yes,m,,,,m,1,726,5,32
11,26,right,male,1,18,C.bmp,,好人,Bad,No,k,,,,k,1,463,3,16
11,26,right,male,1,19,S.bmp,,常人,Good,No,k,,,,k,1,641,7,48
11,26,right,male,1,20,S.bmp,,好人,Good,Yes,m,,,,m,1,383,9,64
11,26,right,male,1,21,C.bmp,,坏人,Bad,Yes,m,,,,k,0,873,5,32
11,26,right,male,1,22,T.bmp,,坏人,Normal,No,k,,,,k,1,883,11,80
11,26,right,male,1,23,S.bmp,,坏人,Good,No,k,,,,k,1,741,7,48
11,26,right,male,1,24,T.bmp,,常人,Normal,Yes,m,,,,k,0,916,13,96
11,26,right,male,1,25,T.bmp,,常人,Normal,Yes,m,,,,m,1,489,13,96
11,26,right,male,1,26,T.bmp,,坏人,Normal,No,k,,,,k,1,591,11,80
11,26,right,male,1,27,T.bmp,,好人,Normal,No,k,,,,k,1,633,11,80
11,26,right,male,1,28,S.bmp,,好人,Good,Yes,m,,,,m,1,352,9,64
11,26,right,male,1,29,S.bmp,,常人,Good,No,k,,,,k,1,596,7,48
11,26,right,male,1,30,S.bmp,,好人,Good,Yes,m,,,,m,1,442,9,64
11,26,right,male,1,31,C.bmp,,常人,Bad,No,k,,,,k,1,646,3,16
11,26,right,male,1,32,S.bmp,,坏人,Good,No,k,,,,k,1,430,7,48
11,26,right,male,1,33,T.bmp,,常人,Normal,Yes,m,,,,m,1,380,13,96
11,26,right,male,1,34,C.bmp,,坏人,Bad,Yes,m,,,,m,1,418,5,32
11,26,right,male,1,35,C.bmp,,坏人,Bad,Yes,m,,,,m,1,771,5,32
11,26,right,male,1,36,C.bmp,,好人,Bad,No,k,,,,k,1,697,3,16
11,26,right,male,1,37,S.bmp,,常人,Good,No,k,,,,k,1,533,7,48
11,26,right,male,1,38,T.bmp,,坏人,Normal,No,k,,,,k,1,723,11,80
11,26,right,male,1,39,S.bmp,,坏人,Good,No,k,,,,k,1,775,7,48
11,26,right,male,1,40,T.bmp,,常人,Normal,Yes,m,,,,m,1,363,13,96
11,26,right,male,1,41,C.bmp,,坏人,Bad,Yes,m,,,,m,1,485,5,32
11,26,right,male,1,42,C.bmp,,坏人,Bad,Yes,m,,,,m,1,521,5,32
11,26,right,male,1,43,S.bmp,,好人,Good,Yes,m,,,,m,1,452,9,64
11,26,right,male,1,44,C.bmp,,好人,Bad,No,k,,,,k,1,654,3,16
11,26,right,male,1,45,T.bmp,,常人,Normal,Yes,m,,,,m,1,345,13,96
11,26,right,male,1,46,S.bmp,,好人,Good,Yes,m,,,,m,1,556,9,64
11,26,right,male,1,47,T.bmp,,好人,Normal,No,k,,,,k,1,442,11,80
11,26,right,male,1,48,C.bmp,,常人,Bad,No,k,,,,k,1,510,3,16
11,26,right,male,1,49,C.bmp,,坏人,Bad,Yes,m,,,,m,1,720,5,32
11,26,right,male,1,50,S.bmp,,好人,Good,Yes,m,,,,m,1,420,9,64
11,26,right,male,1,51,T.bmp,,常人,Normal,Yes,m,,,,m,1,398,13,96
11,26,right,male,1,52,C.bmp,,好人,Bad,No,k,,,,k,1,466,3,16
11,26,right,male,1,53,C.bmp,,常人,Bad,No,k,,,,k,1,515,3,16
11,26,right,male,1,54,T.bmp,,常人,Normal,Yes,m,,,,m,1,419,13,96
11,26,right,male,1,55,S.bmp,,好人,Good,Yes,m,,,,m,1,517,9,64
11,26,right,male,1,56,S.bmp,,坏人,Good,No,k,,,,k,1,607,7,48
11,26,right,male,1,57,T.bmp,,好人,Normal,No,k,,,,k,1,768,11,80
11,26,right,male,1,58,T.bmp,,坏人,Normal,No,k,,,,k,1,788,11,80
11,26,right,male,1,59,C.bmp,,坏人,Bad,Yes,m,,,,m,1,564,5,32
11,26,right,male,1,60,S.bmp,,常人,Good,No,k,,,,k,1,602,7,48
11,26,right,male,1,61,S.bmp,,坏人,Good,No,k,,,,k,1,574,7,48
11,26,right,male,1,62,T.bmp,,好人,Normal,No,k,,,,k,1,1000,11,80
11,26,right,male,1,63,S.bmp,,常人,Good,No,k,,,,k,1,704,7,48
11,26,right,male,1,64,T.bmp,,常人,Normal,Yes,m,,,,m,1,886,13,96
11,26,right,male,1,65,C.bmp,,坏人,Bad,Yes,m,,,,k,0,824,5,32
11,26,right,male,1,66,C.bmp,,常人,Bad,No,k,,,,,0,0,3,16
11,26,right,male,1,67,C.bmp,,好人,Bad,No,k,,,,k,1,675,3,16
11,26,right,male,1,68,T.bmp,,常人,Normal,Yes,m,,,,m,1,750,13,96
11,26,right,male,1,69,C.bmp,,坏人,Bad,Yes,m,,,,m,1,590,5,32
11,26,right,male,1,70,T.bmp,,坏人,Normal,No,k,,,,k,1,630,11,80
11,26,right,male,1,71,S.bmp,,好人,Good,Yes,m,,,,m,1,424,9,64
11,26,right,male,1,72,S.bmp,,好人,Good,Yes,m,,,,m,1,418,9,64
11,26,right,male,1,73,T.bmp,,好人,Normal,No,k,,,,k,1,544,11,80
11,26,right,male,1,74,T.bmp,,坏人,Normal,No,k,,,,k,1,618,11,80
11,26,right,male,1,75,S.bmp,,常人,Good,No,k,,,,k,1,492,7,48
11,26,right,male,1,76,C.bmp,,坏人,Bad,Yes,m,,,,m,1,1032,5,32
11,26,right,male,1,77,T.bmp,,常人,Normal,Yes,m,,,,m,1,720,13,96
11,26,right,male,1,78,C.bmp,,常人,Bad,No,k,,,,k,1,470,3,16
11,26,right,male,1,79,C.bmp,,好人,Bad,No,k,,,,k,1,436,3,16
11,26,right,male,1,80,S.bmp,,好人,Good,Yes,m,,,,m,1,780,9,64
11,26,right,male,1,81,S.bmp,,坏人,Good,No,k,,,,k,1,478,7,48
11,26,right,male,1,82,T.bmp,,常人,Normal,Yes,m,,,,m,1,589,13,96
11,26,right,male,1,83,S.bmp,,好人,Good,Yes,m,,,,m,1,427,9,64
11,26,right,male,1,84,C.bmp,,坏人,Bad,Yes,m,,,,m,1,468,5,32
11,26,right,male,1,85,S.bmp,,好人,Good,Yes,m,,,,m,1,348,9,64
11,26,right,male,1,86,C.bmp,,坏人,Bad,Yes,m,,,,m,1,738,5,32
11,26,right,male,1,87,C.bmp,,坏人,Bad,Yes,m,,,,m,1,400,5,32
11,26,right,male,1,88,C.bmp,,好人,Bad,No,k,,,,k,1,546,3,16
11,26,right,male,1,89,T.bmp,,常人,Normal,Yes,m,,,,m,1,384,13,96
11,26,right,male,1,90,S.bmp,,好人,Good,Yes,m,,,,m,1,458,9,64
11,26,right,male,1,91,T.bmp,,坏人,Normal,No,k,,,,m,0,1000,11,80
11,26,right,male,1,92,S.bmp,,常人,Good,No,k,,,,k,1,642,7,48
11,26,right,male,1,93,S.bmp,,坏人,Good,No,k,,,,k,1,444,7,48
11,26,right,male,1,94,T.bmp,,常人,Normal,Yes,m,,,,m,1,546,13,96
11,26,right,male,1,95,T.bmp,,好人,Normal,No,k,,,,k,1,548,11,80
11,26,right,male,1,96,C.bmp,,常人,Bad,No,k,,,,k,1,669,3,16
11,26,right,male,1,97,T.bmp,,常人,Normal,Yes,m,,,,m,1,285,13,96
11,26,right,male,1,98,T.bmp,,常人,Normal,Yes,m,,,,m,1,375,13,96
11,26,right,male,1,99,S.bmp,,坏人,Good,No,k,,,,k,1,641,7,48
11,26,right,male,1,100,C.bmp,,坏人,Bad,Yes,m,,,,m,1,557,5,32
11,26,right,male,1,101,S.bmp,,好人,Good,Yes,m,,,,m,1,445,9,64
11,26,right,male,1,102,S.bmp,,常人,Good,No,k,,,,k,1,484,7,48
11,26,right,male,1,103,C.bmp,,好人,Bad,No,k,,,,k,1,682,3,16
11,26,right,male,1,104,C.bmp,,常人,Bad,No,k,,,,k,1,526,3,16
11,26,right,male,1,105,S.bmp,,好人,Good,Yes,m,,,,m,1,406,9,64
11,26,right,male,1,106,C.bmp,,坏人,Bad,Yes,m,,,,k,0,570,5,32
11,26,right,male,1,107,T.bmp,,坏人,Normal,No,k,,,,k,1,512,11,80
11,26,right,male,1,108,T.bmp,,好人,Normal,No,k,,,,k,1,560,11,80
11,26,right,male,1,109,C.bmp,,坏人,Bad,Yes,m,,,,,0,0,5,32
11,26,right,male,1,110,S.bmp,,常人,Good,No,k,,,,m,0,474,7,48
11,26,right,male,1,111,S.bmp,,好人,Good,Yes,m,,,,m,1,471,9,64
11,26,right,male,1,112,C.bmp,,常人,Bad,No,k,,,,k,1,877,3,16
11,26,right,male,1,113,S.bmp,,坏人,Good,No,k,,,,k,1,687,7,48
11,26,right,male,1,114,T.bmp,,坏人,Normal,No,k,,,,k,1,1029,11,80
11,26,right,male,1,115,T.bmp,,常人,Normal,Yes,m,,,,m,1,471,13,96
11,26,right,male,1,116,S.bmp,,好人,Good,Yes,m,,,,m,1,363,9,64
11,26,right,male,1,117,C.bmp,,好人,Bad,No,k,,,,k,1,861,3,16
11,26,right,male,1,118,T.bmp,,好人,Normal,No,k,,,,k,1,725,11,80
11,26,right,male,1,119,C.bmp,,坏人,Bad,Yes,m,,,,k,0,815,5,32
11,26,right,male,1,120,T.bmp,,常人,Normal,Yes,m,,,,m,1,964,13,96
11,26,right,male,2,1,C.bmp,,坏人,Bad,Yes,m,,,,m,1,423,5,32
11,26,right,male,2,2,C.bmp,,常人,Bad,No,k,,,,k,1,523,3,16
11,26,right,male,2,3,S.bmp,,常人,Good,No,k,,,,k,1,467,7,48
11,26,right,male,2,4,S.bmp,,好人,Good,Yes,m,,,,k,0,439,9,64
11,26,right,male,2,5,T.bmp,,坏人,Normal,No,k,,,,k,1,629,11,80
11,26,right,male,2,6,T.bmp,,常人,Normal,Yes,m,,,,m,1,501,13,96
11,26,right,male,2,7,C.bmp,,好人,Bad,No,k,,,,k,1,711,3,16
11,26,right,male,2,8,T.bmp,,常人,Normal,Yes,m,,,,m,1,455,13,96
11,26,right,male,2,9,S.bmp,,坏人,Good,No,k,,,,k,1,497,7,48
11,26,right,male,2,10,T.bmp,,好人,Normal,No,k,,,,k,1,441,11,80
11,26,right,male,2,11,C.bmp,,坏人,Bad,Yes,m,,,,m,1,755,5,32
11,26,right,male,2,12,S.bmp,,好人,Good,Yes,m,,,,m,1,393,9,64
11,26,right,male,2,13,C.bmp,,坏人,Bad,Yes,m,,,,m,1,582,5,32
11,26,right,male,2,14,S.bmp,,好人,Good,Yes,m,,,,m,1,466,9,64
11,26,right,male,2,15,T.bmp,,常人,Normal,Yes,m,,,,m,1,887,13,96
11,26,right,male,2,16,C.bmp,,好人,Bad,No,k,,,,k,1,585,3,16
11,26,right,male,2,17,S.bmp,,常人,Good,No,k,,,,k,1,531,7,48
11,26,right,male,2,18,S.bmp,,好人,Good,Yes,m,,,,m,1,465,9,64
11,26,right,male,2,19,T.bmp,,好人,Normal,No,k,,,,m,0,697,11,80
11,26,right,male,2,20,T.bmp,,常人,Normal,Yes,m,,,,m,1,437,13,96
11,26,right,male,2,21,C.bmp,,常人,Bad,No,k,,,,k,1,699,3,16
11,26,right,male,2,22,C.bmp,,坏人,Bad,Yes,m,,,,m,1,765,5,32
11,26,right,male,2,23,S.bmp,,坏人,Good,No,k,,,,k,1,363,7,48
11,26,right,male,2,24,T.bmp,,坏人,Normal,No,k,,,,m,0,461,11,80
11,26,right,male,2,25,C.bmp,,坏人,Bad,Yes,m,,,,m,1,547,5,32
11,26,right,male,2,26,T.bmp,,常人,Normal,Yes,m,,,,m,1,449,13,96
11,26,right,male,2,27,C.bmp,,常人,Bad,No,k,,,,k,1,676,3,16
11,26,right,male,2,28,T.bmp,,坏人,Normal,No,k,,,,k,1,436,11,80
11,26,right,male,2,29,S.bmp,,好人,Good,Yes,m,,,,m,1,512,9,64
11,26,right,male,2,30,C.bmp,,好人,Bad,No,k,,,,k,1,504,3,16
11,26,right,male,2,31,T.bmp,,好人,Normal,No,k,,,,k,1,553,11,80
11,26,right,male,2,32,S.bmp,,常人,Good,No,k,,,,k,1,479,7,48
11,26,right,male,2,33,T.bmp,,常人,Normal,Yes,m,,,,m,1,845,13,96
11,26,right,male,2,34,S.bmp,,好人,Good,Yes,m,,,,m,1,367,9,64
11,26,right,male,2,35,C.bmp,,坏人,Bad,Yes,m,,,,m,1,509,5,32
11,26,right,male,2,36,S.bmp,,坏人,Good,No,k,,,,k,1,609,7,48
11,26,right,male,2,37,S.bmp,,坏人,Good,No,k,,,,k,1,435,7,48
11,26,right,male,2,38,C.bmp,,坏人,Bad,Yes,m,,,,m,1,377,5,32
11,26,right,male,2,39,S.bmp,,好人,Good,Yes,m,,,,m,1,345,9,64
11,26,right,male,2,40,S.bmp,,好人,Good,Yes,m,,,,m,1,425,9,64
11,26,right,male,2,41,T.bmp,,常人,Normal,Yes,m,,,,m,1,422,13,96
11,26,right,male,2,42,C.bmp,,好人,Bad,No,k,,,,k,1,644,3,16
11,26,right,male,2,43,T.bmp,,坏人,Normal,No,k,,,,k,1,866,11,80
11,26,right,male,2,44,C.bmp,,常人,Bad,No,k,,,,k,1,520,3,16
11,26,right,male,2,45,S.bmp,,常人,Good,No,k,,,,k,1,546,7,48
11,26,right,male,2,46,T.bmp,,好人,Normal,No,k,,,,k,1,538,11,80
11,26,right,male,2,47,C.bmp,,坏人,Bad,Yes,m,,,,m,1,492,5,32
11,26,right,male,2,48,T.bmp,,常人,Normal,Yes,m,,,,k,0,794,13,96
11,26,right,male,2,49,T.bmp,,常人,Normal,Yes,m,,,,m,1,386,13,96
11,26,right,male,2,50,T.bmp,,好人,Normal,No,k,,,,k,1,493,11,80
11,26,right,male,2,51,C.bmp,,坏人,Bad,Yes,m,,,,m,1,469,5,32
11,26,right,male,2,52,T.bmp,,常人,Normal,Yes,m,,,,m,1,359,13,96
11,26,right,male,2,53,T.bmp,,坏人,Normal,No,k,,,,k,1,461,11,80
11,26,right,male,2,54,C.bmp,,常人,Bad,No,k,,,,k,1,519,3,16
11,26,right,male,2,55,C.bmp,,坏人,Bad,Yes,m,,,,m,1,381,5,32
11,26,right,male,2,56,S.bmp,,好人,Good,Yes,m,,,,m,1,456,9,64
11,26,right,male,2,57,S.bmp,,坏人,Good,No,k,,,,k,1,632,7,48
11,26,right,male,2,58,S.bmp,,常人,Good,No,k,,,,k,1,724,7,48
11,26,right,male,2,59,S.bmp,,好人,Good,Yes,m,,,,m,1,402,9,64
11,26,right,male,2,60,C.bmp,,好人,Bad,No,k,,,,k,1,698,3,16
11,26,right,male,2,61,S.bmp,,常人,Good,No,k,,,,,0,0,7,48
11,26,right,male,2,62,C.bmp,,坏人,Bad,Yes,m,,,,m,1,418,5,32
11,26,right,male,2,63,C.bmp,,坏人,Bad,Yes,m,,,,m,1,473,5,32
11,26,right,male,2,64,S.bmp,,坏人,Good,No,k,,,,k,1,381,7,48
11,26,right,male,2,65,C.bmp,,好人,Bad,No,k,,,,k,1,593,3,16
11,26,right,male,2,66,T.bmp,,好人,Normal,No,k,,,,k,1,444,11,80
11,26,right,male,2,67,T.bmp,,坏人,Normal,No,k,,,,m,0,878,11,80
11,26,right,male,2,68,T.bmp,,常人,Normal,Yes,m,,,,m,1,370,13,96
11,26,right,male,2,69,S.bmp,,好人,Good,Yes,m,,,,m,1,346,9,64
11,26,right,male,2,70,T.bmp,,常人,Normal,Yes,m,,,,m,1,488,13,96
11,26,right,male,2,71,S.bmp,,好人,Good,Yes,m,,,,m,1,404,9,64
11,26,right,male,2,72,C.bmp,,常人,Bad,No,k,,,,k,1,734,3,16
11,26,right,male,2,73,S.bmp,,坏人,Good,No,k,,,,k,1,598,7,48
11,26,right,male,2,74,S.bmp,,好人,Good,Yes,m,,,,m,1,426,9,64
11,26,right,male,2,75,C.bmp,,常人,Bad,No,k,,,,k,1,914,3,16
11,26,right,male,2,76,T.bmp,,常人,Normal,Yes,m,,,,m,1,634,13,96
11,26,right,male,2,77,T.bmp,,好人,Normal,No,k,,,,k,1,542,11,80
11,26,right,male,2,78,C.bmp,,坏人,Bad,Yes,m,,,,m,1,426,5,32
11,26,right,male,2,79,T.bmp,,坏人,Normal,No,k,,,,k,1,418,11,80
11,26,right,male,2,80,S.bmp,,好人,Good,Yes,m,,,,m,1,416,9,64
11,26,right,male,2,81,S.bmp,,常人,Good,No,k,,,,k,1,564,7,48
11,26,right,male,2,82,T.bmp,,常人,Normal,Yes,m,,,,m,1,274,13,96
11,26,right,male,2,83,C.bmp,,好人,Bad,No,k,,,,k,1,396,3,16
11,26,right,male,2,84,C.bmp,,坏人,Bad,Yes,m,,,,m,1,534,5,32
11,26,right,male,2,85,T.bmp,,常人,Normal,Yes,m,,,,m,1,415,13,96
11,26,right,male,2,86,T.bmp,,好人,Normal,No,k,,,,k,1,546,11,80
11,26,right,male,2,87,S.bmp,,坏人,Good,No,k,,,,k,1,424,7,48
11,26,right,male,2,88,S.bmp,,常人,Good,No,k,,,,k,1,526,7,48
11,26,right,male,2,89,S.bmp,,好人,Good,Yes,m,,,,m,1,496,9,64
11,26,right,male,2,90,C.bmp,,坏人,Bad,Yes,m,,,,m,1,820,5,32
11,26,right,male,2,91,T.bmp,,坏人,Normal,No,k,,,,k,1,532,11,80
11,26,right,male,2,92,C.bmp,,好人,Bad,No,k,,,,k,1,460,3,16
11,26,right,male,2,93,S.bmp,,好人,Good,Yes,m,,,,m,1,468,9,64
11,26,right,male,2,94,C.bmp,,常人,Bad,No,k,,,,k,1,448,3,16
11,26,right,male,2,95,T.bmp,,常人,Normal,Yes,m,,,,m,1,637,13,96
11,26,right,male,2,96,C.bmp,,坏人,Bad,Yes,m,,,,m,1,661,5,32
11,26,right,male,2,97,S.bmp,,常人,Good,No,k,,,,m,0,631,7,48
11,26,right,male,2,98,T.bmp,,坏人,Normal,No,k,,,,k,1,874,11,80
11,26,right,male,2,99,C.bmp,,坏人,Bad,Yes,m,,,,m,1,320,5,32
11,26,right,male,2,100,T.bmp,,常人,Normal,Yes,m,,,,m,1,419,13,96
11,26,right,male,2,101,T.bmp,,好人,Normal,No,k,,,,k,1,466,11,80
11,26,right,male,2,102,S.bmp,,好人,Good,Yes,m,,,,m,1,406,9,64
11,26,right,male,2,103,C.bmp,,常人,Bad,No,k,,,,k,1,698,3,16
11,26,right,male,2,104,S.bmp,,坏人,Good,No,k,,,,k,1,636,7,48
11,26,right,male,2,105,T.bmp,,常人,Normal,Yes,m,,,,m,1,500,13,96
11,26,right,male,2,106,S.bmp,,好人,Good,Yes,m,,,,m,1,328,9,64
11,26,right,male,2,107,C.bmp,,好人,Bad,No,k,,,,k,1,648,3,16
11,26,right,male,2,108,C.bmp,,坏人,Bad,Yes,m,,,,m,1,696,5,32
11,26,right,male,2,109,C.bmp,,坏人,Bad,Yes,m,,,,m,1,437,5,32
11,26,right,male,2,110,S.bmp,,好人,Good,Yes,m,,,,m,1,741,9,64
11,26,right,male,2,111,T.bmp,,好人,Normal,No,k,,,,k,1,545,11,80
11,26,right,male,2,112,C.bmp,,常人,Bad,No,k,,,,k,1,427,3,16
11,26,right,male,2,113,T.bmp,,常人,Normal,Yes,m,,,,k,0,757,13,96
11,26,right,male,2,114,C.bmp,,坏人,Bad,Yes,m,,,,m,1,685,5,32
11,26,right,male,2,115,S.bmp,,常人,Good,No,k,,,,k,1,561,7,48
11,26,right,male,2,116,C.bmp,,好人,Bad,No,k,,,,k,1,904,3,16
11,26,right,male,2,117,S.bmp,,坏人,Good,No,k,,,,k,1,590,7,48
11,26,right,male,2,118,T.bmp,,常人,Normal,Yes,m,,,,m,1,426,13,96
11,26,right,male,2,119,T.bmp,,坏人,Normal,No,k,,,,m,0,700,11,80
11,26,right,male,2,120,S.bmp,,好人,Good,Yes,m,,,,m,1,620,9,64
11,26,right,male,3,1,C.bmp,,坏人,Bad,Yes,m,,,,m,1,397,5,32
11,26,right,male,3,2,C.bmp,,常人,Bad,No,k,,,,k,1,611,3,16
11,26,right,male,3,3,S.bmp,,好人,Good,Yes,m,,,,m,1,375,9,64
11,26,right,male,3,4,S.bmp,,好人,Good,Yes,m,,,,m,1,409,9,64
11,26,right,male,3,5,T.bmp,,坏人,Normal,No,k,,,,k,1,643,11,80
11,26,right,male,3,6,S.bmp,,常人,Good,No,k,,,,k,1,553,7,48
11,26,right,male,3,7,S.bmp,,坏人,Good,No,k,,,,k,1,483,7,48
11,26,right,male,3,8,T.bmp,,常人,Normal,Yes,m,,,,m,1,507,13,96
11,26,right,male,3,9,T.bmp,,好人,Normal,No,k,,,,k,1,455,11,80
11,26,right,male,3,10,T.bmp,,常人,Normal,Yes,m,,,,m,1,451,13,96
11,26,right,male,3,11,C.bmp,,好人,Bad,No,k,,,,k,1,1019,3,16
11,26,right,male,3,12,C.bmp,,坏人,Bad,Yes,m,,,,m,1,656,5,32
11,26,right,male,3,13,T.bmp,,好人,Normal,No,k,,,,k,1,429,11,80
11,26,right,male,3,14,C.bmp,,坏人,Bad,Yes,m,,,,m,1,437,5,32
11,26,right,male,3,15,S.bmp,,好人,Good,Yes,m,,,,m,1,411,9,64
11,26,right,male,3,16,C.bmp,,好人,Bad,No,k,,,,k,1,715,3,16
11,26,right,male,3,17,S.bmp,,坏人,Good,No,k,,,,k,1,625,7,48
11,26,right,male,3,18,S.bmp,,常人,Good,No,k,,,,k,1,461,7,48
11,26,right,male,3,19,T.bmp,,常人,Normal,Yes,m,,,,m,1,491,13,96
11,26,right,male,3,20,C.bmp,,坏人,Bad,Yes,m,,,,m,1,415,5,32
11,26,right,male,3,21,C.bmp,,常人,Bad,No,k,,,,k,1,507,3,16
11,26,right,male,3,22,T.bmp,,坏人,Normal,No,k,,,,k,1,693,11,80
11,26,right,male,3,23,T.bmp,,常人,Normal,Yes,m,,,,m,1,353,13,96
11,26,right,male,3,24,S.bmp,,好人,Good,Yes,m,,,,m,1,445,9,64
11,26,right,male,3,25,C.bmp,,坏人,Bad,Yes,m,,,,m,1,603,5,32
11,26,right,male,3,26,T.bmp,,好人,Normal,No,k,,,,k,1,555,11,80
11,26,right,male,3,27,C.bmp,,好人,Bad,No,k,,,,k,1,680,3,16
11,26,right,male,3,28,C.bmp,,常人,Bad,No,k,,,,k,1,466,3,16
11,26,right,male,3,29,S.bmp,,好人,Good,Yes,m,,,,m,1,510,9,64
11,26,right,male,3,30,C.bmp,,坏人,Bad,Yes,m,,,,m,1,349,5,32
11,26,right,male,3,31,T.bmp,,坏人,Normal,No,k,,,,k,1,551,11,80
11,26,right,male,3,32,T.bmp,,常人,Normal,Yes,m,,,,m,1,399,13,96
11,26,right,male,3,33,S.bmp,,坏人,Good,No,k,,,,k,1,633,7,48
11,26,right,male,3,34,S.bmp,,好人,Good,Yes,m,,,,m,1,367,9,64
11,26,right,male,3,35,S.bmp,,常人,Good,No,k,,,,m,0,547,7,48
11,26,right,male,3,36,T.bmp,,常人,Normal,Yes,m,,,,m,1,291,13,96
11,26,right,male,3,37,T.bmp,,好人,Normal,No,k,,,,k,1,989,11,80
11,26,right,male,3,38,C.bmp,,常人,Bad,No,k,,,,k,1,403,3,16
11,26,right,male,3,39,T.bmp,,常人,Normal,Yes,m,,,,m,1,385,13,96
11,26,right,male,3,40,S.bmp,,坏人,Good,No,k,,,,k,1,533,7,48
11,26,right,male,3,41,S.bmp,,好人,Good,Yes,m,,,,m,1,544,9,64
11,26,right,male,3,42,C.bmp,,坏人,Bad,Yes,m,,,,m,1,764,5,32
11,26,right,male,3,43,T.bmp,,坏人,Normal,No,k,,,,k,1,520,11,80
11,26,right,male,3,44,T.bmp,,常人,Normal,Yes,m,,,,m,1,350,13,96
11,26,right,male,3,45,S.bmp,,常人,Good,No,k,,,,k,1,550,7,48
11,26,right,male,3,46,S.bmp,,好人,Good,Yes,m,,,,m,1,404,9,64
11,26,right,male,3,47,C.bmp,,坏人,Bad,Yes,m,,,,m,1,615,5,32
11,26,right,male,3,48,C.bmp,,好人,Bad,No,k,,,,k,1,729,3,16
11,26,right,male,3,49,S.bmp,,好人,Good,Yes,m,,,,m,1,559,9,64
11,26,right,male,3,50,T.bmp,,坏人,Normal,No,k,,,,k,1,487,11,80
11,26,right,male,3,51,C.bmp,,坏人,Bad,Yes,m,,,,m,1,589,5,32
11,26,right,male,3,52,C.bmp,,坏人,Bad,Yes,m,,,,m,1,519,5,32
11,26,right,male,3,53,C.bmp,,常人,Bad,No,k,,,,k,1,751,3,16
11,26,right,male,3,54,T.bmp,,常人,Normal,Yes,m,,,,m,1,607,13,96
11,26,right,male,3,55,C.bmp,,好人,Bad,No,k,,,,k,1,507,3,16
11,26,right,male,3,56,T.bmp,,常人,Normal,Yes,m,,,,m,1,416,13,96
11,26,right,male,3,57,S.bmp,,常人,Good,No,k,,,,k,1,488,7,48
11,26,right,male,3,58,T.bmp,,好人,Normal,No,k,,,,k,1,552,11,80
11,26,right,male,3,59,S.bmp,,好人,Good,Yes,m,,,,m,1,508,9,64
11,26,right,male,3,60,S.bmp,,坏人,Good,No,k,,,,k,1,588,7,48
11,26,right,male,3,61,T.bmp,,常人,Normal,Yes,m,,,,m,1,507,13,96
11,26,right,male,3,62,T.bmp,,好人,Normal,No,k,,,,k,1,501,11,80
11,26,right,male,3,63,T.bmp,,坏人,Normal,No,k,,,,k,1,687,11,80
11,26,right,male,3,64,S.bmp,,坏人,Good,No,k,,,,k,1,645,7,48
11,26,right,male,3,65,C.bmp,,好人,Bad,No,k,,,,k,1,445,3,16
11,26,right,male,3,66,S.bmp,,好人,Good,Yes,m,,,,m,1,378,9,64
11,26,right,male,3,67,C.bmp,,坏人,Bad,Yes,m,,,,m,1,580,5,32
11,26,right,male,3,68,C.bmp,,常人,Bad,No,k,,,,k,1,446,3,16
11,26,right,male,3,69,T.bmp,,常人,Normal,Yes,m,,,,m,1,598,13,96
11,26,right,male,3,70,S.bmp,,好人,Good,Yes,m,,,,m,1,430,9,64
11,26,right,male,3,71,C.bmp,,坏人,Bad,Yes,m,,,,m,1,438,5,32
11,26,right,male,3,72,S.bmp,,常人,Good,No,k,,,,k,1,474,7,48
11,26,right,male,3,73,T.bmp,,坏人,Normal,No,k,,,,m,0,898,11,80
11,26,right,male,3,74,S.bmp,,常人,Good,No,k,,,,k,1,658,7,48
11,26,right,male,3,75,S.bmp,,好人,Good,Yes,m,,,,m,1,398,9,64
11,26,right,male,3,76,T.bmp,,好人,Normal,No,k,,,,k,1,568,11,80
11,26,right,male,3,77,C.bmp,,坏人,Bad,Yes,m,,,,m,1,582,5,32
11,26,right,male,3,78,S.bmp,,好人,Good,Yes,m,,,,m,1,370,9,64
11,26,right,male,3,79,S.bmp,,坏人,Good,No,k,,,,k,1,421,7,48
11,26,right,male,3,80,C.bmp,,好人,Bad,No,k,,,,k,1,463,3,16
11,26,right,male,3,81,C.bmp,,常人,Bad,No,k,,,,k,1,438,3,16
11,26,right,male,3,82,T.bmp,,常人,Normal,Yes,m,,,,m,1,414,13,96
11,26,right,male,3,83,T.bmp,,常人,Normal,Yes,m,,,,m,1,522,13,96
11,26,right,male,3,84,C.bmp,,坏人,Bad,Yes,m,,,,m,1,754,5,32
11,26,right,male,3,85,C.bmp,,常人,Bad,No,k,,,,k,1,460,3,16
11,26,right,male,3,86,C.bmp,,坏人,Bad,Yes,m,,,,m,1,860,5,32
11,26,right,male,3,87,S.bmp,,好人,Good,Yes,m,,,,m,1,444,9,64
11,26,right,male,3,88,T.bmp,,坏人,Normal,No,k,,,,k,1,734,11,80
11,26,right,male,3,89,T.bmp,,常人,Normal,Yes,m,,,,m,1,478,13,96
11,26,right,male,3,90,C.bmp,,好人,Bad,No,k,,,,k,1,1020,3,16
11,26,right,male,3,91,C.bmp,,坏人,Bad,Yes,m,,,,m,1,510,5,32
11,26,right,male,3,92,T.bmp,,好人,Normal,No,k,,,,k,1,604,11,80
11,26,right,male,3,93,S.bmp,,常人,Good,No,k,,,,k,1,966,7,48
11,26,right,male,3,94,S.bmp,,好人,Good,Yes,m,,,,k,0,986,9,64
11,26,right,male,3,95,T.bmp,,常人,Normal,Yes,m,,,,m,1,483,13,96
11,26,right,male,3,96,S.bmp,,坏人,Good,No,k,,,,m,0,771,7,48
11,26,right,male,3,97,C.bmp,,坏人,Bad,Yes,m,,,,m,1,378,5,32
11,26,right,male,3,98,T.bmp,,常人,Normal,Yes,m,,,,m,1,662,13,96
11,26,right,male,3,99,C.bmp,,坏人,Bad,Yes,m,,,,m,1,488,5,32
11,26,right,male,3,100,C.bmp,,常人,Bad,No,k,,,,k,1,426,3,16
11,26,right,male,3,101,S.bmp,,好人,Good,Yes,m,,,,m,1,394,9,64
11,26,right,male,3,102,C.bmp,,好人,Bad,No,k,,,,k,1,616,3,16
11,26,right,male,3,103,T.bmp,,坏人,Normal,No,k,,,,k,1,636,11,80
11,26,right,male,3,104,T.bmp,,好人,Normal,No,k,,,,k,1,462,11,80
11,26,right,male,3,105,S.bmp,,好人,Good,Yes,m,,,,m,1,562,9,64
11,26,right,male,3,106,S.bmp,,坏人,Good,No,k,,,,k,1,654,7,48
11,26,right,male,3,107,T.bmp,,常人,Normal,Yes,m,,,,m,1,852,13,96
11,26,right,male,3,108,S.bmp,,常人,Good,No,k,,,,k,1,578,7,48
11,26,right,male,3,109,T.bmp,,坏人,Normal,No,k,,,,k,1,729,11,80
11,26,right,male,3,110,S.bmp,,常人,Good,No,k,,,,k,1,855,7,48
11,26,right,male,3,111,C.bmp,,坏人,Bad,Yes,m,,,,m,1,615,5,32
11,26,right,male,3,112,T.bmp,,好人,Normal,No,k,,,,k,1,1043,11,80
11,26,right,male,3,113,S.bmp,,好人,Good,Yes,m,,,,m,1,447,9,64
11,26,right,male,3,114,C.bmp,,好人,Bad,No,k,,,,k,1,685,3,16
11,26,right,male,3,115,S.bmp,,坏人,Good,No,k,,,,k,1,654,7,48
11,26,right,male,3,116,T.bmp,,常人,Normal,Yes,m,,,,m,1,896,13,96
11,26,right,male,3,117,T.bmp,,常人,Normal,Yes,m,,,,m,1,630,13,96
11,26,right,male,3,118,C.bmp,,坏人,Bad,Yes,m,,,,m,1,538,5,32
11,26,right,male,3,119,S.bmp,,好人,Good,Yes,m,,,,m,1,522,9,64
11,26,right,male,3,120,C.bmp,,常人,Bad,No,k,,,,m,0,712,3,16
11,26,right,male,4,1,C.bmp,,坏人,Bad,Yes,m,,,,m,1,503,5,32
11,26,right,male,4,2,C.bmp,,好人,Bad,No,k,,,,k,1,601,3,16
11,26,right,male,4,3,T.bmp,,常人,Normal,Yes,m,,,,m,1,573,13,96
11,26,right,male,4,4,C.bmp,,坏人,Bad,Yes,m,,,,m,1,615,5,32
11,26,right,male,4,5,S.bmp,,常人,Good,No,k,,,,k,1,663,7,48
11,26,right,male,4,6,S.bmp,,好人,Good,Yes,m,,,,m,1,537,9,64
11,26,right,male,4,7,T.bmp,,坏人,Normal,No,k,,,,k,1,599,11,80
11,26,right,male,4,8,S.bmp,,坏人,Good,No,k,,,,k,1,561,7,48
11,26,right,male,4,9,S.bmp,,好人,Good,Yes,m,,,,m,1,483,9,64
11,26,right,male,4,10,C.bmp,,常人,Bad,No,k,,,,k,1,519,3,16
11,26,right,male,4,11,T.bmp,,好人,Normal,No,k,,,,k,1,547,11,80
11,26,right,male,4,12,T.bmp,,常人,Normal,Yes,m,,,,k,0,746,13,96
11,26,right,male,4,13,T.bmp,,常人,Normal,Yes,m,,,,m,1,290,13,96
11,26,right,male,4,14,C.bmp,,常人,Bad,No,k,,,,k,1,794,3,16
11,26,right,male,4,15,T.bmp,,好人,Normal,No,k,,,,k,1,534,11,80
11,26,right,male,4,16,T.bmp,,坏人,Normal,No,k,,,,k,1,631,11,80
11,26,right,male,4,17,C.bmp,,坏人,Bad,Yes,m,,,,m,1,439,5,32
11,26,right,male,4,18,S.bmp,,好人,Good,Yes,m,,,,m,1,331,9,64
11,26,right,male,4,19,C.bmp,,坏人,Bad,Yes,m,,,,m,1,383,5,32
11,26,right,male,4,20,S.bmp,,好人,Good,Yes,m,,,,m,1,375,9,64
11,26,right,male,4,21,S.bmp,,坏人,Good,No,k,,,,k,1,641,7,48
11,26,right,male,4,22,C.bmp,,好人,Bad,No,k,,,,k,1,477,3,16
11,26,right,male,4,23,T.bmp,,常人,Normal,Yes,m,,,,m,1,359,13,96
11,26,right,male,4,24,S.bmp,,常人,Good,No,k,,,,k,1,403,7,48
11,26,right,male,4,25,S.bmp,,坏人,Good,No,k,,,,k,1,441,7,48
11,26,right,male,4,26,C.bmp,,坏人,Bad,Yes,m,,,,m,1,553,5,32
11,26,right,male,4,27,T.bmp,,常人,Normal,Yes,m,,,,m,1,457,13,96
11,26,right,male,4,28,T.bmp,,好人,Normal,No,k,,,,k,1,789,11,80
11,26,right,male,4,29,T.bmp,,常人,Normal,Yes,m,,,,m,1,406,13,96
11,26,right,male,4,30,S.bmp,,常人,Good,No,k,,,,k,1,471,7,48
11,26,right,male,4,31,T.bmp,,坏人,Normal,No,k,,,,k,1,619,11,80
11,26,right,male,4,32,S.bmp,,好人,Good,Yes,m,,,,m,1,445,9,64
11,26,right,male,4,33,C.bmp,,好人,Bad,No,k,,,,k,1,467,3,16
11,26,right,male,4,34,S.bmp,,好人,Good,Yes,m,,,,m,1,433,9,64
11,26,right,male,4,35,C.bmp,,常人,Bad,No,k,,,,k,1,583,3,16
11,26,right,male,4,36,C.bmp,,坏人,Bad,Yes,m,,,,m,1,549,5,32
11,26,right,male,4,37,C.bmp,,坏人,Bad,Yes,m,,,,m,1,771,5,32
11,26,right,male,4,38,T.bmp,,常人,Normal,Yes,m,,,,m,1,397,13,96
11,26,right,male,4,39,C.bmp,,坏人,Bad,Yes,m,,,,m,1,371,5,32
11,26,right,male,4,40,C.bmp,,常人,Bad,No,k,,,,k,1,405,3,16
11,26,right,male,4,41,S.bmp,,好人,Good,Yes,m,,,,m,1,357,9,64
11,26,right,male,4,42,S.bmp,,坏人,Good,No,k,,,,k,1,607,7,48
11,26,right,male,4,43,S.bmp,,好人,Good,Yes,m,,,,m,1,731,9,64
11,26,right,male,4,44,T.bmp,,坏人,Normal,No,k,,,,k,1,584,11,80
11,26,right,male,4,45,T.bmp,,常人,Normal,Yes,m,,,,m,1,500,13,96
11,26,right,male,4,46,T.bmp,,好人,Normal,No,k,,,,k,1,498,11,80
11,26,right,male,4,47,S.bmp,,常人,Good,No,k,,,,m,0,934,7,48
11,26,right,male,4,48,C.bmp,,好人,Bad,No,k,,,,k,1,615,3,16
11,26,right,male,4,49,T.bmp,,坏人,Normal,No,k,,,,k,1,637,11,80
11,26,right,male,4,50,C.bmp,,坏人,Bad,Yes,m,,,,m,1,741,5,32
11,26,right,male,4,51,S.bmp,,常人,Good,No,k,,,,k,1,841,7,48
11,26,right,male,4,52,T.bmp,,好人,Normal,No,k,,,,k,1,635,11,80
11,26,right,male,4,53,S.bmp,,好人,Good,Yes,m,,,,m,1,831,9,64
11,26,right,male,4,54,T.bmp,,常人,Normal,Yes,m,,,,m,1,357,13,96
11,26,right,male,4,55,S.bmp,,坏人,Good,No,k,,,,k,1,467,7,48
11,26,right,male,4,56,C.bmp,,坏人,Bad,Yes,m,,,,m,1,587,5,32
11,26,right,male,4,57,C.bmp,,好人,Bad,No,k,,,,k,1,447,3,16
11,26,right,male,4,58,T.bmp,,常人,Normal,Yes,m,,,,m,1,534,13,96
11,26,right,male,4,59,C.bmp,,常人,Bad,No,k,,,,k,1,478,3,16
11,26,right,male,4,60,S.bmp,,好人,Good,Yes,m,,,,m,1,402,9,64
11,26,right,male,4,61,C.bmp,,常人,Bad,No,k,,,,k,1,811,3,16
11,26,right,male,4,62,S.bmp,,坏人,Good,No,k,,,,k,1,521,7,48
11,26,right,male,4,63,C.bmp,,坏人,Bad,Yes,m,,,,m,1,773,5,32
11,26,right,male,4,64,S.bmp,,常人,Good,No,k,,,,k,1,583,7,48
11,26,right,male,4,65,S.bmp,,好人,Good,Yes,m,,,,m,1,493,9,64
11,26,right,male,4,66,C.bmp,,坏人,Bad,Yes,m,,,,m,1,531,5,32
11,26,right,male,4,67,S.bmp,,好人,Good,Yes,m,,,,m,1,529,9,64
11,26,right,male,4,68,T.bmp,,好人,Normal,No,k,,,,k,1,438,11,80
11,26,right,male,4,69,T.bmp,,坏人,Normal,No,k,,,,k,1,590,11,80
11,26,right,male,4,70,C.bmp,,好人,Bad,No,k,,,,k,1,504,3,16
11,26,right,male,4,71,T.bmp,,常人,Normal,Yes,m,,,,m,1,388,13,96
11,26,right,male,4,72,T.bmp,,常人,Normal,Yes,m,,,,m,1,408,13,96
11,26,right,male,4,73,T.bmp,,坏人,Normal,No,k,,,,k,1,624,11,80
11,26,right,male,4,74,T.bmp,,常人,Normal,Yes,m,,,,m,1,392,13,96
11,26,right,male,4,75,C.bmp,,坏人,Bad,Yes,m,,,,m,1,642,5,32
11,26,right,male,4,76,S.bmp,,好人,Good,Yes,m,,,,m,1,372,9,64
11,26,right,male,4,77,S.bmp,,常人,Good,No,k,,,,k,1,680,7,48
11,26,right,male,4,78,S.bmp,,好人,Good,Yes,m,,,,m,1,368,9,64
11,26,right,male,4,79,T.bmp,,常人,Normal,Yes,m,,,,m,1,399,13,96
11,26,right,male,4,80,C.bmp,,常人,Bad,No,k,,,,k,1,457,3,16
11,26,right,male,4,81,T.bmp,,好人,Normal,No,k,,,,k,1,433,11,80
11,26,right,male,4,82,S.bmp,,坏人,Good,No,k,,,,k,1,652,7,48
11,26,right,male,4,83,C.bmp,,坏人,Bad,Yes,m,,,,m,1,360,5,32
11,26,right,male,4,84,C.bmp,,好人,Bad,No,k,,,,k,1,436,3,16
11,26,right,male,4,85,S.bmp,,坏人,Good,No,k,,,,k,1,492,7,48
11,26,right,male,4,86,S.bmp,,好人,Good,Yes,m,,,,m,1,368,9,64
11,26,right,male,4,87,C.bmp,,常人,Bad,No,k,,,,k,1,448,3,16
11,26,right,male,4,88,S.bmp,,好人,Good,Yes,m,,,,m,1,504,9,64
11,26,right,male,4,89,T.bmp,,常人,Normal,Yes,m,,,,m,1,718,13,96
11,26,right,male,4,90,T.bmp,,好人,Normal,No,k,,,,k,1,412,11,80
11,26,right,male,4,91,S.bmp,,常人,Good,No,k,,,,k,1,518,7,48
11,26,right,male,4,92,T.bmp,,常人,Normal,Yes,m,,,,m,1,348,13,96
11,26,right,male,4,93,C.bmp,,坏人,Bad,Yes,m,,,,m,1,444,5,32
11,26,right,male,4,94,C.bmp,,好人,Bad,No,k,,,,k,1,658,3,16
11,26,right,male,4,95,T.bmp,,坏人,Normal,No,k,,,,k,1,448,11,80
11,26,right,male,4,96,C.bmp,,坏人,Bad,Yes,m,,,,m,1,353,5,32
11,26,right,male,4,97,C.bmp,,坏人,Bad,Yes,m,,,,m,1,422,5,32
11,26,right,male,4,98,T.bmp,,坏人,Normal,No,k,,,,k,1,396,11,80
11,26,right,male,4,99,S.bmp,,好人,Good,Yes,m,,,,m,1,468,9,64
11,26,right,male,4,100,C.bmp,,好人,Bad,No,k,,,,k,1,626,3,16
11,26,right,male,4,101,S.bmp,,坏人,Good,No,k,,,,k,1,478,7,48
11,26,right,male,4,102,S.bmp,,常人,Good,No,k,,,,k,1,470,7,48
11,26,right,male,4,103,S.bmp,,好人,Good,Yes,m,,,,m,1,406,9,64
11,26,right,male,4,104,C.bmp,,常人,Bad,No,k,,,,k,1,516,3,16
11,26,right,male,4,105,T.bmp,,常人,Normal,Yes,m,,,,m,1,484,13,96
11,26,right,male,4,106,T.bmp,,好人,Normal,No,k,,,,k,1,448,11,80
11,26,right,male,4,107,T.bmp,,常人,Normal,Yes,m,,,,m,1,390,13,96
11,26,right,male,4,108,C.bmp,,坏人,Bad,Yes,m,,,,m,1,410,5,32
11,26,right,male,4,109,S.bmp,,好人,Good,Yes,m,,,,m,1,396,9,64
11,26,right,male,4,110,T.bmp,,常人,Normal,Yes,m,,,,m,1,414,13,96
11,26,right,male,4,111,S.bmp,,好人,Good,Yes,m,,,,m,1,389,9,64
11,26,right,male,4,112,C.bmp,,坏人,Bad,Yes,m,,,,m,1,369,5,32
11,26,right,male,4,113,S.bmp,,坏人,Good,No,k,,,,k,1,509,7,48
11,26,right,male,4,114,T.bmp,,坏人,Normal,No,k,,,,k,1,490,11,80
11,26,right,male,4,115,C.bmp,,坏人,Bad,Yes,m,,,,m,1,490,5,32
11,26,right,male,4,116,T.bmp,,常人,Normal,Yes,m,,,,m,1,608,13,96
11,26,right,male,4,117,C.bmp,,好人,Bad,No,k,,,,k,1,462,3,16
11,26,right,male,4,118,S.bmp,,常人,Good,No,k,,,,k,1,616,7,48
11,26,right,male,4,119,T.bmp,,好人,Normal,No,k,,,,k,1,530,11,80
11,26,right,male,4,120,C.bmp,,常人,Bad,No,k,,,,k,1,524,3,16
11,26,right,male,5,1,S.bmp,,好人,Good,Yes,m,,,,m,1,365,9,64
11,26,right,male,5,2,C.bmp,,坏人,Bad,Yes,m,,,,m,1,331,5,32
11,26,right,male,5,3,C.bmp,,坏人,Bad,Yes,m,,,,m,1,309,5,32
11,26,right,male,5,4,T.bmp,,常人,Normal,Yes,m,,,,m,1,369,13,96
11,26,right,male,5,5,T.bmp,,常人,Normal,Yes,m,,,,m,1,361,13,96
11,26,right,male,5,6,S.bmp,,好人,Good,Yes,m,,,,m,1,359,9,64
11,26,right,male,5,7,C.bmp,,好人,Bad,No,k,,,,k,1,685,3,16
11,26,right,male,5,8,S.bmp,,常人,Good,No,k,,,,k,1,463,7,48
11,26,right,male,5,9,T.bmp,,坏人,Normal,No,k,,,,k,1,585,11,80
11,26,right,male,5,10,S.bmp,,坏人,Good,No,k,,,,k,1,515,7,48
11,26,right,male,5,11,T.bmp,,好人,Normal,No,k,,,,k,1,468,11,80
11,26,right,male,5,12,C.bmp,,常人,Bad,No,k,,,,k,1,588,3,16
11,26,right,male,5,13,S.bmp,,好人,Good,Yes,m,,,,m,1,422,9,64
11,26,right,male,5,14,S.bmp,,常人,Good,No,k,,,,k,1,522,7,48
