Subject,Session,Age,Handedness,Sex,BlockList.Sample,PracList.Sample,SubTrial,Label,Target,Shape,morality,identity,YesNoResp,CorrectAnswer,Targetprac.RESP,Targetprac.ACC,Targetprac.RT,Target.RESP,Target.ACC,Target.RT,CodePrime,CodeTarget
6201,2,21,right,male,,1,1,NormalSelf.bmp,Tra.bmp,Normalself,normal,self,Yes,m,m,1,651,,,,,
6201,2,21,right,male,,1,2,NormalOther.bmp,S.bmp,Normalother,normal,other,Yes,m,,0,0,,,,,
6201,2,21,right,male,,1,3,GoodSelf.bmp,C.bmp,Goodself,moral,self,Yes,m,m,1,432,,,,,
6201,2,21,right,male,,1,4,NormalOther.bmp,Tra.bmp,Normalself,normal,other,No,k,k,1,690,,,,,
6201,2,21,right,male,,1,5,NormalSelf.bmp,P.bmp,Goodother,normal,self,No,k,k,1,571,,,,,
6201,2,21,right,male,,1,6,GoodSelf.bmp,Tra.bmp,Normalself,moral,self,No,k,k,1,477,,,,,
6201,2,21,right,male,,1,7,NormalSelf.bmp,Tra.bmp,Normalself,normal,self,Yes,m,m,1,503,,,,,
6201,2,21,right,male,,1,8,NormalOther.bmp,S.bmp,Normalother,normal,other,Yes,m,m,1,761,,,,,
6201,2,21,right,male,,1,9,NormalOther.bmp,S.bmp,Normalother,normal,other,Yes,m,m,1,929,,,,,
6201,2,21,right,male,,1,10,GoodOther.bmp,T.bmp,Badother,moral,other,No,k,k,1,714,,,,,
6201,2,21,right,male,,1,11,BadSelf.bmp,D.bmp,Badself,immoral,self,Yes,m,m,1,620,,,,,
6201,2,21,right,male,,1,12,NormalSelf.bmp,C.bmp,Goodself,normal,self,No,k,k,1,878,,,,,
6201,2,21,right,male,,1,13,GoodOther.bmp,C.bmp,Goodself,moral,other,No,k,m,0,623,,,,,
6201,2,21,right,male,,1,14,NormalOther.bmp,S.bmp,Normalother,normal,other,Yes,m,m,1,609,,,,,
6201,2,21,right,male,,1,15,GoodOther.bmp,D.bmp,Badself,moral,other,No,k,k,1,651,,,,,
6201,2,21,right,male,,1,16,BadOther.bmp,T.bmp,Badother,immoral,other,Yes,m,m,1,541,,,,,
6201,2,21,right,male,,1,17,NormalOther.bmp,T.bmp,Badother,normal,other,No,k,k,1,1024,,,,,
6201,2,21,right,male,,1,18,GoodOther.bmp,S.bmp,Normalother,moral,other,No,k,k,1,826,,,,,
6201,2,21,right,male,,1,19,GoodOther.bmp,P.bmp,Goodother,moral,other,Yes,m,m,1,604,,,,,
6201,2,21,right,male,,1,20,GoodSelf.bmp,C.bmp,Goodself,moral,self,Yes,m,m,1,638,,,,,
6201,2,21,right,male,,1,21,BadOther.bmp,T.bmp,Badother,immoral,other,Yes,m,m,1,631,,,,,
6201,2,21,right,male,,1,22,GoodSelf.bmp,D.bmp,Badself,moral,self,No,k,k,1,553,,,,,
6201,2,21,right,male,,1,23,NormalOther.bmp,S.bmp,Normalother,normal,other,Yes,m,m,1,802,,,,,
6201,2,21,right,male,,1,24,BadOther.bmp,Tra.bmp,Normalself,immoral,other,No,k,k,1,716,,,,,
6201,2,21,right,male,,1,25,GoodSelf.bmp,S.bmp,Normalother,moral,self,No,k,k,1,646,,,,,
6201,2,21,right,male,,1,26,GoodSelf.bmp,C.bmp,Goodself,moral,self,Yes,m,m,1,352,,,,,
6201,2,21,right,male,,1,27,BadOther.bmp,T.bmp,Badother,immoral,other,Yes,m,k,0,722,,,,,
6201,2,21,right,male,,1,28,GoodOther.bmp,P.bmp,Goodother,moral,other,Yes,m,m,1,427,,,,,
6201,2,21,right,male,,1,29,BadSelf.bmp,D.bmp,Badself,immoral,self,Yes,m,m,1,1077,,,,,
6201,2,21,right,male,,1,30,NormalSelf.bmp,T.bmp,Badother,normal,self,No,k,k,1,518,,,,,
6201,2,21,right,male,,1,31,GoodSelf.bmp,C.bmp,Goodself,moral,self,Yes,m,m,1,688,,,,,
6201,2,21,right,male,,1,32,BadSelf.bmp,P.bmp,Goodother,immoral,self,No,k,k,1,738,,,,,
6201,2,21,right,male,,1,33,BadSelf.bmp,Tra.bmp,Normalself,immoral,self,No,k,k,1,932,,,,,
6201,2,21,right,male,,1,34,NormalOther.bmp,C.bmp,Goodself,normal,other,No,k,k,1,694,,,,,
6201,2,21,right,male,,1,35,NormalSelf.bmp,S.bmp,Normalother,normal,self,No,k,k,1,800,,,,,
6201,2,21,right,male,,1,36,NormalSelf.bmp,D.bmp,Badself,normal,self,No,k,k,1,529,,,,,
6201,2,21,right,male,,1,37,BadOther.bmp,P.bmp,Goodother,immoral,other,No,k,k,1,668,,,,,
6201,2,21,right,male,,1,38,GoodSelf.bmp,P.bmp,Goodother,moral,self,No,k,k,1,886,,,,,
6201,2,21,right,male,,1,39,GoodOther.bmp,P.bmp,Goodother,moral,other,Yes,m,k,0,896,,,,,
6201,2,21,right,male,,1,40,NormalSelf.bmp,Tra.bmp,Normalself,normal,self,Yes,m,m,1,394,,,,,
6201,2,21,right,male,,1,41,BadOther.bmp,T.bmp,Badother,immoral,other,Yes,m,m,1,548,,,,,
6201,2,21,right,male,,1,42,GoodSelf.bmp,T.bmp,Badother,moral,self,No,k,k,1,846,,,,,
6201,2,21,right,male,,1,43,BadSelf.bmp,D.bmp,Badself,immoral,self,Yes,m,m,1,526,,,,,
6201,2,21,right,male,,1,44,BadSelf.bmp,C.bmp,Goodself,immoral,self,No,k,k,1,768,,,,,
6201,2,21,right,male,,1,45,GoodOther.bmp,P.bmp,Goodother,moral,other,Yes,m,m,1,482,,,,,
6201,2,21,right,male,,1,46,GoodSelf.bmp,C.bmp,Goodself,moral,self,Yes,m,m,1,308,,,,,
6201,2,21,right,male,,1,47,BadSelf.bmp,T.bmp,Badother,immoral,self,No,k,k,1,558,,,,,
6201,2,21,right,male,,1,48,GoodOther.bmp,P.bmp,Goodother,moral,other,Yes,m,m,1,392,,,,,
6201,2,21,right,male,,1,49,NormalOther.bmp,P.bmp,Goodother,normal,other,No,k,m,0,882,,,,,
6201,2,21,right,male,,1,50,GoodOther.bmp,Tra.bmp,Normalself,moral,other,No,k,k,1,547,,,,,
6201,2,21,right,male,,1,51,NormalOther.bmp,D.bmp,Badself,normal,other,No,k,,0,0,,,,,
6201,2,21,right,male,,1,52,NormalSelf.bmp,Tra.bmp,Normalself,normal,self,Yes,m,m,1,830,,,,,
6201,2,21,right,male,,1,53,BadOther.bmp,D.bmp,Badself,immoral,other,No,k,k,1,992,,,,,
6201,2,21,right,male,,1,54,NormalSelf.bmp,Tra.bmp,Normalself,normal,self,Yes,m,m,1,410,,,,,
6201,2,21,right,male,,1,55,BadOther.bmp,T.bmp,Badother,immoral,other,Yes,m,m,1,532,,,,,
6201,2,21,right,male,,1,56,BadSelf.bmp,D.bmp,Badself,immoral,self,Yes,m,m,1,646,,,,,
6201,2,21,right,male,,1,57,BadSelf.bmp,S.bmp,Normalother,immoral,self,No,k,k,1,751,,,,,
6201,2,21,right,male,,1,58,BadSelf.bmp,D.bmp,Badself,immoral,self,Yes,m,m,1,705,,,,,
6201,2,21,right,male,,1,59,BadOther.bmp,C.bmp,Goodself,immoral,other,No,k,k,1,722,,,,,
6201,2,21,right,male,,1,60,BadOther.bmp,S.bmp,Normalother,immoral,other,No,k,k,1,1020,,,,,
6201,2,21,right,male,1,,1,BadOther.bmp,S.bmp,Normalother,bad,other,No,k,,,,k,1,605,16,1
6201,2,21,right,male,1,,2,BadSelf.bmp,D.bmp,Badself,bad,self,Yes,m,,,,m,1,537,160,10
6201,2,21,right,male,1,,3,NormalSelf.bmp,C.bmp,Goodself,normal,self,No,k,,,,k,1,517,96,6
6201,2,21,right,male,1,,4,GoodOther.bmp,C.bmp,Goodself,good,other,No,k,,,,k,1,728,32,2
6201,2,21,right,male,1,,5,GoodOther.bmp,P.bmp,Goodother,good,other,Yes,m,,,,k,0,624,128,8
6201,2,21,right,male,1,,6,NormalOther.bmp,S.bmp,Normalother,normal,other,Yes,m,,,,m,1,643,128,8
6201,2,21,right,male,1,,7,NormalSelf.bmp,P.bmp,Goodother,normal,self,No,k,,,,m,0,671,96,6
6201,2,21,right,male,1,,8,GoodOther.bmp,T.bmp,Badother,good,other,No,k,,,,m,0,771,32,2
6201,2,21,right,male,1,,9,BadSelf.bmp,D.bmp,Badself,bad,self,Yes,m,,,,m,1,623,160,10
6201,2,21,right,male,1,,10,GoodSelf.bmp,C.bmp,Goodself,good,self,Yes,m,,,,m,1,347,176,11
6201,2,21,right,male,1,,11,GoodSelf.bmp,C.bmp,Goodself,good,self,Yes,m,,,,m,1,431,176,11
6201,2,21,right,male,1,,12,NormalOther.bmp,S.bmp,Normalother,normal,other,Yes,m,,,,m,1,627,128,8
6201,2,21,right,male,1,,13,GoodOther.bmp,P.bmp,Goodother,good,other,Yes,m,,,,k,0,807,128,8
6201,2,21,right,male,1,,14,GoodSelf.bmp,Tra.bmp,Normalself,good,self,No,k,,,,m,0,595,80,5
6201,2,21,right,male,1,,15,BadSelf.bmp,D.bmp,Badself,bad,self,Yes,m,,,,m,1,511,160,10
6201,2,21,right,male,1,,16,GoodOther.bmp,P.bmp,Goodother,good,other,Yes,m,,,,m,1,801,128,8
6201,2,21,right,male,1,,17,NormalSelf.bmp,T.bmp,Badother,normal,self,No,k,,,,k,1,499,96,6
6201,2,21,right,male,1,,18,NormalOther.bmp,D.bmp,Badself,normal,other,No,k,,,,k,1,727,48,3
6201,2,21,right,male,1,,19,GoodOther.bmp,P.bmp,Goodother,good,other,Yes,m,,,,m,1,411,128,8
6201,2,21,right,male,1,,20,NormalSelf.bmp,Tra.bmp,Normalself,normal,self,Yes,m,,,,m,1,727,192,12
6201,2,21,right,male,1,,21,GoodSelf.bmp,S.bmp,Normalother,good,self,No,k,,,,k,1,531,80,5
6201,2,21,right,male,1,,22,NormalSelf.bmp,D.bmp,Badself,normal,self,No,k,,,,k,1,655,96,6
6201,2,21,right,male,1,,23,GoodSelf.bmp,C.bmp,Goodself,good,self,Yes,m,,,,m,1,331,176,11
6201,2,21,right,male,1,,24,BadOther.bmp,T.bmp,Badother,bad,other,Yes,m,,,,k,0,863,112,7
6201,2,21,right,male,1,,25,BadSelf.bmp,S.bmp,Normalother,bad,self,No,k,,,,k,1,931,64,4
6201,2,21,right,male,1,,26,BadOther.bmp,T.bmp,Badother,bad,other,Yes,m,,,,m,1,759,112,7
6201,2,21,right,male,1,,27,GoodSelf.bmp,C.bmp,Goodself,good,self,Yes,m,,,,m,1,857,176,11
6201,2,21,right,male,1,,28,NormalSelf.bmp,Tra.bmp,Normalself,normal,self,Yes,m,,,,m,1,916,192,12
6201,2,21,right,male,1,,29,NormalOther.bmp,T.bmp,Badother,normal,other,No,k,,,,k,1,840,48,3
6201,2,21,right,male,1,,30,NormalOther.bmp,S.bmp,Normalother,normal,other,Yes,m,,,,m,1,923,128,8
6201,2,21,right,male,1,,31,GoodSelf.bmp,P.bmp,Goodother,good,self,No,k,,,,m,0,767,80,5
6201,2,21,right,male,1,,32,BadSelf.bmp,Tra.bmp,Normalself,bad,self,No,k,,,,k,1,859,64,4
6201,2,21,right,male,1,,33,GoodOther.bmp,P.bmp,Goodother,good,other,Yes,m,,,,m,1,607,128,8
6201,2,21,right,male,1,,34,BadOther.bmp,T.bmp,Badother,bad,other,Yes,m,,,,m,1,1051,112,7
6201,2,21,right,male,1,,35,NormalSelf.bmp,Tra.bmp,Normalself,normal,self,Yes,m,,,,m,1,895,192,12
6201,2,21,right,male,1,,36,GoodSelf.bmp,C.bmp,Goodself,good,self,Yes,m,,,,m,1,395,176,11
6201,2,21,right,male,1,,37,GoodOther.bmp,S.bmp,Normalother,good,other,No,k,,,,k,1,471,32,2
6201,2,21,right,male,1,,38,GoodSelf.bmp,C.bmp,Goodself,good,self,Yes,m,,,,m,1,121,176,11
6201,2,21,right,male,1,,39,NormalOther.bmp,S.bmp,Normalother,normal,other,Yes,m,,,,m,1,602,128,8
6201,2,21,right,male,1,,40,NormalSelf.bmp,Tra.bmp,Normalself,normal,self,Yes,m,,,,m,1,470,192,12
6201,2,21,right,male,1,,41,NormalSelf.bmp,Tra.bmp,Normalself,normal,self,Yes,m,,,,m,1,338,192,12
6201,2,21,right,male,1,,42,NormalOther.bmp,S.bmp,Normalother,normal,other,Yes,m,,,,m,1,413,128,8
6201,2,21,right,male,1,,43,NormalOther.bmp,C.bmp,Goodself,normal,other,No,k,,,,m,0,473,48,3
6201,2,21,right,male,1,,44,GoodOther.bmp,P.bmp,Goodother,good,other,Yes,m,,,,m,1,469,128,8
6201,2,21,right,male,1,,45,NormalSelf.bmp,Tra.bmp,Normalself,normal,self,Yes,m,,,,m,1,521,192,12
6201,2,21,right,male,1,,46,BadSelf.bmp,D.bmp,Badself,bad,self,Yes,m,,,,,0,0,160,10
6201,2,21,right,male,1,,47,GoodOther.bmp,P.bmp,Goodother,good,other,Yes,m,,,,m,1,748,128,8
6201,2,21,right,male,1,,48,BadSelf.bmp,C.bmp,Goodself,bad,self,No,k,,,,m,0,456,64,4
6201,2,21,right,male,1,,49,GoodOther.bmp,Tra.bmp,Normalself,good,other,No,k,,,,k,1,540,32,2
6201,2,21,right,male,1,,50,BadOther.bmp,T.bmp,Badother,bad,other,Yes,m,,,,m,1,567,112,7
6201,2,21,right,male,1,,51,BadOther.bmp,D.bmp,Badself,bad,other,No,k,,,,,0,0,16,1
6201,2,21,right,male,1,,52,NormalOther.bmp,S.bmp,Normalother,normal,other,Yes,m,,,,m,1,767,128,8
6201,2,21,right,male,1,,53,NormalSelf.bmp,Tra.bmp,Normalself,normal,self,Yes,m,,,,m,1,459,192,12
6201,2,21,right,male,1,,54,NormalOther.bmp,S.bmp,Normalother,normal,other,Yes,m,,,,m,1,751,128,8
6201,2,21,right,male,1,,55,BadSelf.bmp,D.bmp,Badself,bad,self,Yes,m,,,,m,1,601,160,10
6201,2,21,right,male,1,,56,GoodOther.bmp,D.bmp,Badself,good,other,No,k,,,,k,1,1097,32,2
6201,2,21,right,male,1,,57,BadOther.bmp,T.bmp,Badother,bad,other,Yes,m,,,,m,1,766,112,7
6201,2,21,right,male,1,,58,BadOther.bmp,T.bmp,Badother,bad,other,Yes,m,,,,k,0,978,112,7
6201,2,21,right,male,1,,59,GoodSelf.bmp,C.bmp,Goodself,good,self,Yes,m,,,,m,1,670,176,11
6201,2,21,right,male,1,,60,BadSelf.bmp,D.bmp,Badself,bad,self,Yes,m,,,,m,1,682,160,10
6201,2,21,right,male,1,,61,GoodSelf.bmp,C.bmp,Goodself,good,self,Yes,m,,,,m,1,326,176,11
6201,2,21,right,male,1,,62,BadSelf.bmp,D.bmp,Badself,bad,self,Yes,m,,,,k,0,546,160,10
6201,2,21,right,male,1,,63,GoodSelf.bmp,T.bmp,Badother,good,self,No,k,,,,k,1,485,80,5
6201,2,21,right,male,1,,64,NormalOther.bmp,S.bmp,Normalother,normal,other,Yes,m,,,,m,1,649,128,8
6201,2,21,right,male,1,,65,NormalOther.bmp,S.bmp,Normalother,normal,other,Yes,m,,,,m,1,493,128,8
6201,2,21,right,male,1,,66,NormalOther.bmp,Tra.bmp,Normalself,normal,other,No,k,,,,k,1,575,48,3
6201,2,21,right,male,1,,67,BadOther.bmp,C.bmp,Goodself,bad,other,No,k,,,,k,1,735,16,1
6201,2,21,right,male,1,,68,NormalSelf.bmp,S.bmp,Normalother,normal,self,No,k,,,,m,0,740,96,6
6201,2,21,right,male,1,,69,BadOther.bmp,P.bmp,Goodother,bad,other,No,k,,,,,0,0,16,1
6201,2,21,right,male,1,,70,BadOther.bmp,T.bmp,Badother,bad,other,Yes,m,,,,m,1,668,112,7
6201,2,21,right,male,1,,71,BadSelf.bmp,P.bmp,Goodother,bad,self,No,k,,,,k,1,880,64,4
6201,2,21,right,male,1,,72,NormalSelf.bmp,Tra.bmp,Normalself,normal,self,Yes,m,,,,m,1,692,192,12
6201,2,21,right,male,1,,73,BadOther.bmp,Tra.bmp,Normalself,bad,other,No,k,,,,k,1,856,16,1
6201,2,21,right,male,1,,74,GoodSelf.bmp,C.bmp,Goodself,good,self,Yes,m,,,,m,1,340,176,11
6201,2,21,right,male,1,,75,GoodSelf.bmp,C.bmp,Goodself,good,self,Yes,m,,,,m,1,384,176,11
6201,2,21,right,male,1,,76,BadSelf.bmp,T.bmp,Badother,bad,self,No,k,,,,k,1,723,64,4
6201,2,21,right,male,1,,77,GoodSelf.bmp,D.bmp,Badself,good,self,No,k,,,,k,1,1093,80,5
6201,2,21,right,male,1,,78,NormalSelf.bmp,Tra.bmp,Normalself,normal,self,Yes,m,,,,m,1,885,192,12
6201,2,21,right,male,1,,79,NormalOther.bmp,S.bmp,Normalother,normal,other,Yes,m,,,,m,1,674,128,8
6201,2,21,right,male,1,,80,GoodOther.bmp,P.bmp,Goodother,good,other,Yes,m,,,,m,1,390,128,8
6201,2,21,right,male,1,,81,GoodOther.bmp,P.bmp,Goodother,good,other,Yes,m,,,,m,1,554,128,8
6201,2,21,right,male,1,,82,BadOther.bmp,T.bmp,Badother,bad,other,Yes,m,,,,m,1,662,112,7
6201,2,21,right,male,1,,83,NormalSelf.bmp,Tra.bmp,Normalself,normal,self,Yes,m,,,,m,1,746,192,12
6201,2,21,right,male,1,,84,GoodOther.bmp,P.bmp,Goodother,good,other,Yes,m,,,,m,1,654,128,8
6201,2,21,right,male,1,,85,BadSelf.bmp,D.bmp,Badself,bad,self,Yes,m,,,,k,0,978,160,10
6201,2,21,right,male,1,,86,BadSelf.bmp,D.bmp,Badself,bad,self,Yes,m,,,,m,1,486,160,10
6201,2,21,right,male,1,,87,BadOther.bmp,T.bmp,Badother,bad,other,Yes,m,,,,,0,0,112,7
6201,2,21,right,male,1,,88,BadOther.bmp,T.bmp,Badother,bad,other,Yes,m,,,,m,1,411,112,7
6201,2,21,right,male,1,,89,BadSelf.bmp,D.bmp,Badself,bad,self,Yes,m,,,,m,1,379,160,10
6201,2,21,right,male,1,,90,NormalOther.bmp,P.bmp,Goodother,normal,other,No,k,,,,m,0,712,48,3
6201,2,21,right,male,2,,1,BadSelf.bmp,T.bmp,Badother,bad,self,No,k,,,,k,1,894,64,4
6201,2,21,right,male,2,,2,GoodOther.bmp,P.bmp,Goodother,good,other,Yes,m,,,,m,1,426,128,8
6201,2,21,right,male,2,,3,BadSelf.bmp,D.bmp,Badself,bad,self,Yes,m,,,,m,1,702,160,10
6201,2,21,right,male,2,,4,GoodSelf.bmp,C.bmp,Goodself,good,self,Yes,m,,,,m,1,302,176,11
6201,2,21,right,male,2,,5,BadSelf.bmp,D.bmp,Badself,bad,self,Yes,m,,,,m,1,531,160,10
6201,2,21,right,male,2,,6,BadOther.bmp,P.bmp,Goodother,bad,other,No,k,,,,m,0,926,16,1
6201,2,21,right,male,2,,7,NormalSelf.bmp,Tra.bmp,Normalself,normal,self,Yes,m,,,,m,1,738,192,12
6201,2,21,right,male,2,,8,BadSelf.bmp,D.bmp,Badself,bad,self,Yes,m,,,,m,1,838,160,10
6201,2,21,right,male,2,,9,BadOther.bmp,T.bmp,Badother,bad,other,Yes,m,,,,m,1,554,112,7
6201,2,21,right,male,2,,10,BadOther.bmp,T.bmp,Badother,bad,other,Yes,m,,,,m,1,430,112,7
6201,2,21,right,male,2,,11,NormalSelf.bmp,T.bmp,Badother,normal,self,No,k,,,,k,1,978,96,6
6201,2,21,right,male,2,,12,BadOther.bmp,T.bmp,Badother,bad,other,Yes,m,,,,m,1,398,112,7
6201,2,21,right,male,2,,13,GoodSelf.bmp,T.bmp,Badother,good,self,No,k,,,,k,1,618,80,5
6201,2,21,right,male,2,,14,GoodOther.bmp,T.bmp,Badother,good,other,No,k,,,,k,1,950,32,2
6201,2,21,right,male,2,,15,GoodSelf.bmp,C.bmp,Goodself,good,self,Yes,m,,,,m,1,278,176,11
6201,2,21,right,male,2,,16,BadOther.bmp,Tra.bmp,Normalself,bad,other,No,k,,,,k,1,667,16,1
6201,2,21,right,male,2,,17,BadSelf.bmp,D.bmp,Badself,bad,self,Yes,m,,,,m,1,719,160,10
6201,2,21,right,male,2,,18,GoodSelf.bmp,S.bmp,Normalother,good,self,No,k,,,,k,1,427,80,5
6201,2,21,right,male,2,,19,BadOther.bmp,T.bmp,Badother,bad,other,Yes,m,,,,m,1,726,112,7
6201,2,21,right,male,2,,20,BadOther.bmp,T.bmp,Badother,bad,other,Yes,m,,,,k,0,970,112,7
6201,2,21,right,male,2,,21,BadOther.bmp,T.bmp,Badother,bad,other,Yes,m,,,,m,1,350,112,7
6201,2,21,right,male,2,,22,BadOther.bmp,T.bmp,Badother,bad,other,Yes,m,,,,m,1,554,112,7
6201,2,21,right,male,2,,23,GoodSelf.bmp,Tra.bmp,Normalself,good,self,No,k,,,,m,0,502,80,5
6201,2,21,right,male,2,,24,NormalOther.bmp,D.bmp,Badself,normal,other,No,k,,,,k,1,530,48,3
6201,2,21,right,male,2,,25,NormalSelf.bmp,Tra.bmp,Normalself,normal,self,Yes,m,,,,m,1,628,192,12
6201,2,21,right,male,2,,26,GoodSelf.bmp,D.bmp,Badself,good,self,No,k,,,,,0,0,80,5
6201,2,21,right,male,2,,27,GoodOther.bmp,C.bmp,Goodself,good,other,No,k,,,,m,0,361,32,2
6201,2,21,right,male,2,,28,NormalOther.bmp,Tra.bmp,Normalself,normal,other,No,k,,,,m,0,933,48,3
6201,2,21,right,male,2,,29,GoodOther.bmp,P.bmp,Goodother,good,other,Yes,m,,,,m,1,841,128,8
6201,2,21,right,male,2,,30,GoodSelf.bmp,C.bmp,Goodself,good,self,Yes,m,,,,m,1,517,176,11
6201,2,21,right,male,2,,31,GoodOther.bmp,P.bmp,Goodother,good,other,Yes,m,,,,m,1,720,128,8
6201,2,21,right,male,2,,32,BadSelf.bmp,D.bmp,Badself,bad,self,Yes,m,,,,m,1,740,160,10
6201,2,21,right,male,2,,33,NormalSelf.bmp,Tra.bmp,Normalself,normal,self,Yes,m,,,,m,1,608,192,12
6201,2,21,right,male,2,,34,BadSelf.bmp,D.bmp,Badself,bad,self,Yes,m,,,,,0,0,160,10
6201,2,21,right,male,2,,35,NormalOther.bmp,S.bmp,Normalother,normal,other,Yes,m,,,,m,1,992,128,8
6201,2,21,right,male,2,,36,NormalOther.bmp,T.bmp,Badother,normal,other,No,k,,,,k,1,412,48,3
6201,2,21,right,male,2,,37,GoodSelf.bmp,C.bmp,Goodself,good,self,Yes,m,,,,m,1,604,176,11
6201,2,21,right,male,2,,38,NormalSelf.bmp,S.bmp,Normalother,normal,self,No,k,,,,m,0,1049,96,6
6201,2,21,right,male,2,,39,NormalOther.bmp,S.bmp,Normalother,normal,other,Yes,m,,,,m,1,1077,128,8
6201,2,21,right,male,2,,40,GoodOther.bmp,P.bmp,Goodother,good,other,Yes,m,,,,m,1,393,128,8
6201,2,21,right,male,2,,41,GoodOther.bmp,P.bmp,Goodother,good,other,Yes,m,,,,m,1,357,128,8
6201,2,21,right,male,2,,42,GoodOther.bmp,P.bmp,Goodother,good,other,Yes,m,,,,m,1,585,128,8
6201,2,21,right,male,2,,43,BadOther.bmp,T.bmp,Badother,bad,other,Yes,m,,,,k,0,773,112,7
6201,2,21,right,male,2,,44,GoodOther.bmp,P.bmp,Goodother,good,other,Yes,m,,,,m,1,512,128,8
6201,2,21,right,male,2,,45,GoodOther.bmp,S.bmp,Normalother,good,other,No,k,,,,k,1,412,32,2
6201,2,21,right,male,2,,46,GoodOther.bmp,P.bmp,Goodother,good,other,Yes,m,,,,m,1,824,128,8
6201,2,21,right,male,2,,47,NormalSelf.bmp,Tra.bmp,Normalself,normal,self,Yes,m,,,,m,1,748,192,12
6201,2,21,right,male,2,,48,GoodSelf.bmp,C.bmp,Goodself,good,self,Yes,m,,,,m,1,428,176,11
6201,2,21,right,male,2,,49,NormalOther.bmp,S.bmp,Normalother,normal,other,Yes,m,,,,m,1,497,128,8
6201,2,21,right,male,2,,50,BadSelf.bmp,D.bmp,Badself,bad,self,Yes,m,,,,m,1,853,160,10
6201,2,21,right,male,2,,51,NormalOther.bmp,S.bmp,Normalother,normal,other,Yes,m,,,,m,1,513,128,8
6201,2,21,right,male,2,,52,GoodOther.bmp,Tra.bmp,Normalself,good,other,No,k,,,,m,0,301,32,2
6201,2,21,right,male,2,,53,NormalSelf.bmp,Tra.bmp,Normalself,normal,self,Yes,m,,,,m,1,929,192,12
6201,2,21,right,male,2,,54,NormalSelf.bmp,Tra.bmp,Normalself,normal,self,Yes,m,,,,m,1,365,192,12
6201,2,21,right,male,2,,55,NormalOther.bmp,P.bmp,Goodother,normal,other,No,k,,,,k,1,833,48,3
6201,2,21,right,male,2,,56,NormalSelf.bmp,C.bmp,Goodself,normal,self,No,k,,,,k,1,708,96,6
6201,2,21,right,male,2,,57,GoodSelf.bmp,P.bmp,Goodother,good,self,No,k,,,,k,1,536,80,5
6201,2,21,right,male,2,,58,NormalSelf.bmp,D.bmp,Badself,normal,self,No,k,,,,k,1,556,96,6
6201,2,21,right,male,2,,59,NormalSelf.bmp,Tra.bmp,Normalself,normal,self,Yes,m,,,,m,1,844,192,12
6201,2,21,right,male,2,,60,NormalOther.bmp,S.bmp,Normalother,normal,other,Yes,m,,,,m,1,361,128,8
6201,2,21,right,male,2,,61,BadOther.bmp,S.bmp,Normalother,bad,other,No,k,,,,k,1,1061,16,1
6201,2,21,right,male,2,,62,GoodSelf.bmp,C.bmp,Goodself,good,self,Yes,m,,,,m,1,409,176,11
6201,2,21,right,male,2,,63,BadSelf.bmp,C.bmp,Goodself,bad,self,No,k,,,,k,1,893,64,4
6201,2,21,right,male,2,,64,GoodSelf.bmp,C.bmp,Goodself,good,self,Yes,m,,,,m,1,449,176,11
6201,2,21,right,male,2,,65,GoodOther.bmp,D.bmp,Badself,good,other,No,k,,,,k,1,749,32,2
6201,2,21,right,male,2,,66,BadSelf.bmp,D.bmp,Badself,bad,self,Yes,m,,,,m,1,593,160,10
6201,2,21,right,male,2,,67,BadOther.bmp,D.bmp,Badself,bad,other,No,k,,,,,0,0,16,1
6201,2,21,right,male,2,,68,BadOther.bmp,C.bmp,Goodself,bad,other,No,k,,,,k,1,697,16,1
6201,2,21,right,male,2,,69,NormalSelf.bmp,Tra.bmp,Normalself,normal,self,Yes,m,,,,m,1,788,192,12
6201,2,21,right,male,2,,70,NormalOther.bmp,S.bmp,Normalother,normal,other,Yes,m,,,,,0,0,128,8
6201,2,21,right,male,2,,71,BadSelf.bmp,S.bmp,Normalother,bad,self,No,k,,,,k,1,433,64,4
6201,2,21,right,male,2,,72,GoodSelf.bmp,C.bmp,Goodself,good,self,Yes,m,,,,m,1,581,176,11
6201,2,21,right,male,2,,73,NormalSelf.bmp,Tra.bmp,Normalself,normal,self,Yes,m,,,,m,1,721,192,12
6201,2,21,right,male,2,,74,NormalOther.bmp,S.bmp,Normalother,normal,other,Yes,m,,,,m,1,981,128,8
6201,2,21,right,male,2,,75,NormalSelf.bmp,Tra.bmp,Normalself,normal,self,Yes,m,,,,m,1,873,192,12
6201,2,21,right,male,2,,76,BadSelf.bmp,D.bmp,Badself,bad,self,Yes,m,,,,m,1,333,160,10
6201,2,21,right,male,2,,77,NormalOther.bmp,S.bmp,Normalother,normal,other,Yes,m,,,,m,1,681,128,8
6201,2,21,right,male,2,,78,NormalOther.bmp,S.bmp,Normalother,normal,other,Yes,m,,,,m,1,349,128,8
6201,2,21,right,male,2,,79,BadOther.bmp,T.bmp,Badother,bad,other,Yes,m,,,,m,1,721,112,7
6201,2,21,right,male,2,,80,NormalOther.bmp,C.bmp,Goodself,normal,other,No,k,,,,m,0,597,48,3
6201,2,21,right,male,2,,81,BadOther.bmp,T.bmp,Badother,bad,other,Yes,m,,,,m,1,846,112,7
6201,2,21,right,male,2,,82,BadSelf.bmp,Tra.bmp,Normalself,bad,self,No,k,,,,k,1,499,64,4
6201,2,21,right,male,2,,83,NormalSelf.bmp,P.bmp,Goodother,normal,self,No,k,,,,k,1,1047,96,6
6201,2,21,right,male,2,,84,BadSelf.bmp,P.bmp,Goodother,bad,self,No,k,,,,k,1,1051,64,4
6201,2,21,right,male,2,,85,GoodSelf.bmp,C.bmp,Goodself,good,self,Yes,m,,,,m,1,327,176,11
6201,2,21,right,male,2,,86,GoodSelf.bmp,C.bmp,Goodself,good,self,Yes,m,,,,m,1,331,176,11
6201,2,21,right,male,2,,87,GoodOther.bmp,P.bmp,Goodother,good,other,Yes,m,,,,m,1,511,128,8
6201,2,21,right,male,2,,88,NormalOther.bmp,S.bmp,Normalother,normal,other,Yes,m,,,,k,0,659,128,8
6201,2,21,right,male,2,,89,GoodOther.bmp,P.bmp,Goodother,good,other,Yes,m,,,,m,1,631,128,8
6201,2,21,right,male,2,,90,BadSelf.bmp,D.bmp,Badself,bad,self,Yes,m,,,,m,1,339,160,10
6201,2,21,right,male,3,,1,NormalOther.bmp,S.bmp,Normalother,normal,other,Yes,m,,,,m,1,975,128,8
6201,2,21,right,male,3,,2,BadOther.bmp,P.bmp,Goodother,bad,other,No,k,,,,,0,0,16,1
6201,2,21,right,male,3,,3,GoodOther.bmp,T.bmp,Badother,good,other,No,k,,,,k,1,599,32,2
6201,2,21,right,male,3,,4,NormalSelf.bmp,Tra.bmp,Normalself,normal,self,Yes,m,,,,m,1,603,192,12
6201,2,21,right,male,3,,5,BadSelf.bmp,D.bmp,Badself,bad,self,Yes,m,,,,m,1,319,160,10
6201,2,21,right,male,3,,6,NormalSelf.bmp,D.bmp,Badself,normal,self,No,k,,,,k,1,563,96,6
6201,2,21,right,male,3,,7,BadOther.bmp,T.bmp,Badother,bad,other,Yes,m,,,,m,1,485,112,7
6201,2,21,right,male,3,,8,BadOther.bmp,T.bmp,Badother,bad,other,Yes,m,,,,k,0,766,112,7
6201,2,21,right,male,3,,9,BadSelf.bmp,D.bmp,Badself,bad,self,Yes,m,,,,m,1,626,160,10
6201,2,21,right,male,3,,10,NormalOther.bmp,S.bmp,Normalother,normal,other,Yes,m,,,,m,1,782,128,8
6201,2,21,right,male,3,,11,NormalOther.bmp,S.bmp,Normalother,normal,other,Yes,m,,,,m,1,354,128,8
6201,2,21,right,male,3,,12,GoodSelf.bmp,C.bmp,Goodself,good,self,Yes,m,,,,m,1,638,176,11
6201,2,21,right,male,3,,13,GoodOther.bmp,P.bmp,Goodother,good,other,Yes,m,,,,m,1,609,128,8
6201,2,21,right,male,3,,14,BadOther.bmp,T.bmp,Badother,bad,other,Yes,m,,,,m,1,397,112,7
6201,2,21,right,male,3,,15,GoodOther.bmp,P.bmp,Goodother,good,other,Yes,m,,,,m,1,409,128,8
6201,2,21,right,male,3,,16,GoodOther.bmp,P.bmp,Goodother,good,other,Yes,m,,,,m,1,309,128,8
6201,2,21,right,male,3,,17,NormalSelf.bmp,Tra.bmp,Normalself,normal,self,Yes,m,,,,m,1,753,192,12
6201,2,21,right,male,3,,18,BadSelf.bmp,S.bmp,Normalother,bad,self,No,k,,,,m,0,673,64,4
6201,2,21,right,male,3,,19,GoodSelf.bmp,C.bmp,Goodself,good,self,Yes,m,,,,m,1,722,176,11
6201,2,21,right,male,3,,20,GoodSelf.bmp,C.bmp,Goodself,good,self,Yes,m,,,,m,1,374,176,11
6201,2,21,right,male,3,,21,BadSelf.bmp,C.bmp,Goodself,bad,self,No,k,,,,k,1,778,64,4
6201,2,21,right,male,3,,22,NormalOther.bmp,S.bmp,Normalother,normal,other,Yes,m,,,,m,1,758,128,8
6201,2,21,right,male,3,,23,BadSelf.bmp,D.bmp,Badself,bad,self,Yes,m,,,,m,1,738,160,10
6201,2,21,right,male,3,,24,NormalOther.bmp,C.bmp,Goodself,normal,other,No,k,,,,m,0,710,48,3
6201,2,21,right,male,3,,25,BadOther.bmp,T.bmp,Badother,bad,other,Yes,m,,,,m,1,897,112,7
6201,2,21,right,male,3,,26,GoodSelf.bmp,D.bmp,Badself,good,self,No,k,,,,k,1,533,80,5
6201,2,21,right,male,3,,27,GoodSelf.bmp,C.bmp,Goodself,good,self,Yes,m,,,,m,1,457,176,11
6201,2,21,right,male,3,,28,NormalSelf.bmp,Tra.bmp,Normalself,normal,self,Yes,m,,,,m,1,437,192,12
6201,2,21,right,male,3,,29,NormalSelf.bmp,Tra.bmp,Normalself,normal,self,Yes,m,,,,m,1,809,192,12
6201,2,21,right,male,3,,30,NormalSelf.bmp,C.bmp,Goodself,normal,self,No,k,,,,k,1,506,96,6
6201,2,21,right,male,3,,31,GoodOther.bmp,Tra.bmp,Normalself,good,other,No,k,,,,k,1,798,32,2
6201,2,21,right,male,3,,32,NormalOther.bmp,S.bmp,Normalother,normal,other,Yes,m,,,,m,1,874,128,8
6201,2,21,right,male,3,,33,NormalSelf.bmp,Tra.bmp,Normalself,normal,self,Yes,m,,,,m,1,358,192,12
6201,2,21,right,male,3,,34,NormalSelf.bmp,Tra.bmp,Normalself,normal,self,Yes,m,,,,m,1,338,192,12
6201,2,21,right,male,3,,35,NormalOther.bmp,T.bmp,Badother,normal,other,No,k,,,,k,1,654,48,3
6201,2,21,right,male,3,,36,BadSelf.bmp,D.bmp,Badself,bad,self,Yes,m,,,,m,1,682,160,10
6201,2,21,right,male,3,,37,NormalOther.bmp,P.bmp,Goodother,normal,other,No,k,,,,k,1,845,48,3
6201,2,21,right,male,3,,38,GoodSelf.bmp,C.bmp,Goodself,good,self,Yes,m,,,,m,1,585,176,11
6201,2,21,right,male,3,,39,NormalOther.bmp,S.bmp,Normalother,normal,other,Yes,m,,,,m,1,565,128,8
6201,2,21,right,male,3,,40,NormalOther.bmp,D.bmp,Badself,normal,other,No,k,,,,k,1,733,48,3
6201,2,21,right,male,3,,41,BadSelf.bmp,D.bmp,Badself,bad,self,Yes,m,,,,m,1,334,160,10
6201,2,21,right,male,3,,42,BadSelf.bmp,D.bmp,Badself,bad,self,Yes,m,,,,m,1,514,160,10
6201,2,21,right,male,3,,43,BadSelf.bmp,D.bmp,Badself,bad,self,Yes,m,,,,m,1,422,160,10
6201,2,21,right,male,3,,44,BadOther.bmp,T.bmp,Badother,bad,other,Yes,m,,,,m,1,770,112,7
6201,2,21,right,male,3,,45,NormalOther.bmp,S.bmp,Normalother,normal,other,Yes,m,,,,m,1,1062,128,8
6201,2,21,right,male,3,,46,NormalSelf.bmp,Tra.bmp,Normalself,normal,self,Yes,m,,,,m,1,306,192,12
6201,2,21,right,male,3,,47,GoodOther.bmp,P.bmp,Goodother,good,other,Yes,m,,,,m,1,534,128,8
6201,2,21,right,male,3,,48,GoodSelf.bmp,S.bmp,Normalother,good,self,No,k,,,,m,0,386,80,5
6201,2,21,right,male,3,,49,NormalOther.bmp,Tra.bmp,Normalself,normal,other,No,k,,,,m,0,478,48,3
6201,2,21,right,male,3,,50,NormalOther.bmp,S.bmp,Normalother,normal,other,Yes,m,,,,m,1,505,128,8
6201,2,21,right,male,3,,51,GoodSelf.bmp,C.bmp,Goodself,good,self,Yes,m,,,,m,1,781,176,11
6201,2,21,right,male,3,,52,GoodOther.bmp,P.bmp,Goodother,good,other,Yes,m,,,,m,1,718,128,8
6201,2,21,right,male,3,,53,GoodOther.bmp,D.bmp,Badself,good,other,No,k,,,,k,1,546,32,2
6201,2,21,right,male,3,,54,GoodOther.bmp,C.bmp,Goodself,good,other,No,k,,,,k,1,622,32,2
6201,2,21,right,male,3,,55,GoodOther.bmp,P.bmp,Goodother,good,other,Yes,m,,,,m,1,810,128,8
6201,2,21,right,male,3,,56,GoodOther.bmp,P.bmp,Goodother,good,other,Yes,m,,,,m,1,550,128,8
6201,2,21,right,male,3,,57,BadOther.bmp,S.bmp,Normalother,bad,other,No,k,,,,k,1,794,16,1
6201,2,21,right,male,3,,58,NormalSelf.bmp,Tra.bmp,Normalself,normal,self,Yes,m,,,,m,1,766,192,12
6201,2,21,right,male,3,,59,GoodOther.bmp,P.bmp,Goodother,good,other,Yes,m,,,,m,1,642,128,8
6201,2,21,right,male,3,,60,NormalOther.bmp,S.bmp,Normalother,normal,other,Yes,m,,,,m,1,870,128,8
6201,2,21,right,male,3,,61,GoodSelf.bmp,C.bmp,Goodself,good,self,Yes,m,,,,m,1,434,176,11
6201,2,21,right,male,3,,62,BadOther.bmp,Tra.bmp,Normalself,bad,other,No,k,,,,m,0,734,16,1
6201,2,21,right,male,3,,63,BadSelf.bmp,P.bmp,Goodother,bad,self,No,k,,,,k,1,902,64,4
6201,2,21,right,male,3,,64,BadSelf.bmp,D.bmp,Badself,bad,self,Yes,m,,,,m,1,570,160,10
6201,2,21,right,male,3,,65,BadSelf.bmp,D.bmp,Badself,bad,self,Yes,m,,,,m,1,398,160,10
6201,2,21,right,male,3,,66,BadOther.bmp,T.bmp,Badother,bad,other,Yes,m,,,,m,1,450,112,7
6201,2,21,right,male,3,,67,BadOther.bmp,D.bmp,Badself,bad,other,No,k,,,,k,1,1030,16,1
6201,2,21,right,male,3,,68,GoodOther.bmp,P.bmp,Goodother,good,other,Yes,m,,,,m,1,482,128,8
6201,2,21,right,male,3,,69,BadOther.bmp,C.bmp,Goodself,bad,other,No,k,,,,k,1,838,16,1
6201,2,21,right,male,3,,70,BadOther.bmp,T.bmp,Badother,bad,other,Yes,m,,,,k,0,802,112,7
6201,2,21,right,male,3,,71,GoodOther.bmp,S.bmp,Normalother,good,other,No,k,,,,k,1,766,32,2
6201,2,21,right,male,3,,72,GoodSelf.bmp,T.bmp,Badother,good,self,No,k,,,,k,1,598,80,5
6201,2,21,right,male,3,,73,BadSelf.bmp,Tra.bmp,Normalself,bad,self,No,k,,,,k,1,718,64,4
6201,2,21,right,male,3,,74,BadSelf.bmp,D.bmp,Badself,bad,self,Yes,m,,,,m,1,775,160,10
6201,2,21,right,male,3,,75,NormalSelf.bmp,T.bmp,Badother,normal,self,No,k,,,,,0,0,96,6
6201,2,21,right,male,3,,76,NormalOther.bmp,S.bmp,Normalother,normal,other,Yes,m,,,,m,1,798,128,8
6201,2,21,right,male,3,,77,BadOther.bmp,T.bmp,Badother,bad,other,Yes,m,,,,m,1,498,112,7
6201,2,21,right,male,3,,78,BadOther.bmp,T.bmp,Badother,bad,other,Yes,m,,,,m,1,470,112,7
6201,2,21,right,male,3,,79,NormalSelf.bmp,Tra.bmp,Normalself,normal,self,Yes,m,,,,m,1,58,192,12
6201,2,21,right,male,3,,80,NormalSelf.bmp,S.bmp,Normalother,normal,self,No,k,,,,k,1,582,96,6
6201,2,21,right,male,3,,81,GoodSelf.bmp,Tra.bmp,Normalself,good,self,No,k,,,,k,1,866,80,5
6201,2,21,right,male,3,,82,GoodSelf.bmp,C.bmp,Goodself,good,self,Yes,m,,,,m,1,686,176,11
6201,2,21,right,male,3,,83,GoodSelf.bmp,C.bmp,Goodself,good,self,Yes,m,,,,m,1,394,176,11
6201,2,21,right,male,3,,84,BadSelf.bmp,T.bmp,Badother,bad,self,No,k,,,,k,1,958,64,4
6201,2,21,right,male,3,,85,GoodOther.bmp,P.bmp,Goodother,good,other,Yes,m,,,,m,1,734,128,8
6201,2,21,right,male,3,,86,NormalSelf.bmp,P.bmp,Goodother,normal,self,No,k,,,,k,1,1051,96,6
6201,2,21,right,male,3,,87,BadOther.bmp,T.bmp,Badother,bad,other,Yes,m,,,,m,1,783,112,7
6201,2,21,right,male,3,,88,GoodSelf.bmp,C.bmp,Goodself,good,self,Yes,m,,,,m,1,490,176,11
6201,2,21,right,male,3,,89,NormalSelf.bmp,Tra.bmp,Normalself,normal,self,Yes,m,,,,m,1,598,192,12
6201,2,21,right,male,3,,90,GoodSelf.bmp,P.bmp,Goodother,good,self,No,k,,,,k,1,434,80,5
6201,2,21,right,male,4,,1,NormalSelf.bmp,Tra.bmp,Normalself,normal,self,Yes,m,,,,m,1,512,192,12
6201,2,21,right,male,4,,2,GoodOther.bmp,P.bmp,Goodother,good,other,Yes,m,,,,m,1,340,128,8
6201,2,21,right,male,4,,3,GoodOther.bmp,C.bmp,Goodself,good,other,No,k,,,,m,0,392,32,2
6201,2,21,right,male,4,,4,BadSelf.bmp,D.bmp,Badself,bad,self,Yes,m,,,,m,1,682,160,10
6201,2,21,right,male,4,,5,NormalSelf.bmp,Tra.bmp,Normalself,normal,self,Yes,m,,,,m,1,394,192,12
6201,2,21,right,male,4,,6,NormalSelf.bmp,Tra.bmp,Normalself,normal,self,Yes,m,,,,m,1,783,192,12
6201,2,21,right,male,4,,7,GoodOther.bmp,D.bmp,Badself,good,other,No,k,,,,k,1,715,32,2
6201,2,21,right,male,4,,8,GoodSelf.bmp,C.bmp,Goodself,good,self,Yes,m,,,,m,1,311,176,11
6201,2,21,right,male,4,,9,BadSelf.bmp,D.bmp,Badself,bad,self,Yes,m,,,,m,1,427,160,10
6201,2,21,right,male,4,,10,NormalOther.bmp,P.bmp,Goodother,normal,other,No,k,,,,k,1,791,48,3
6201,2,21,right,male,4,,11,NormalSelf.bmp,Tra.bmp,Normalself,normal,self,Yes,m,,,,m,1,339,192,12
6201,2,21,right,male,4,,12,BadOther.bmp,S.bmp,Normalother,bad,other,No,k,,,,,0,0,16,1
6201,2,21,right,male,4,,13,GoodOther.bmp,P.bmp,Goodother,good,other,Yes,m,,,,m,1,650,128,8
6201,2,21,right,male,4,,14,NormalSelf.bmp,Tra.bmp,Normalself,normal,self,Yes,m,,,,m,1,830,192,12
6201,2,21,right,male,4,,15,GoodOther.bmp,P.bmp,Goodother,good,other,Yes,m,,,,m,1,354,128,8
6201,2,21,right,male,4,,16,GoodOther.bmp,T.bmp,Badother,good,other,No,k,,,,k,1,578,32,2
6201,2,21,right,male,4,,17,GoodSelf.bmp,T.bmp,Badother,good,self,No,k,,,,k,1,999,80,5
6201,2,21,right,male,4,,18,NormalOther.bmp,S.bmp,Normalother,normal,other,Yes,m,,,,m,1,803,128,8
6201,2,21,right,male,4,,19,GoodOther.bmp,P.bmp,Goodother,good,other,Yes,m,,,,m,1,671,128,8
6201,2,21,right,male,4,,20,BadSelf.bmp,S.bmp,Normalother,bad,self,No,k,,,,,0,0,64,4
6201,2,21,right,male,4,,21,NormalOther.bmp,C.bmp,Goodself,normal,other,No,k,,,,k,1,847,48,3
6201,2,21,right,male,4,,22,NormalSelf.bmp,T.bmp,Badother,normal,self,No,k,,,,k,1,507,96,6
6201,2,21,right,male,4,,23,GoodOther.bmp,P.bmp,Goodother,good,other,Yes,m,,,,m,1,607,128,8
6201,2,21,right,male,4,,24,BadSelf.bmp,D.bmp,Badself,bad,self,Yes,m,,,,m,1,763,160,10
6201,2,21,right,male,4,,25,NormalSelf.bmp,Tra.bmp,Normalself,normal,self,Yes,m,,,,m,1,454,192,12
6201,2,21,right,male,4,,26,BadSelf.bmp,C.bmp,Goodself,bad,self,No,k,,,,k,1,442,64,4
6201,2,21,right,male,4,,27,BadOther.bmp,T.bmp,Badother,bad,other,Yes,m,,,,,0,0,112,7
6201,2,21,right,male,4,,28,NormalSelf.bmp,Tra.bmp,Normalself,normal,self,Yes,m,,,,m,1,703,192,12
6201,2,21,right,male,4,,29,GoodSelf.bmp,D.bmp,Badself,good,self,No,k,,,,,0,0,80,5
6201,2,21,right,male,4,,30,BadSelf.bmp,D.bmp,Badself,bad,self,Yes,m,,,,k,0,1087,160,10
6201,2,21,right,male,4,,31,NormalOther.bmp,D.bmp,Badself,normal,other,No,k,,,,k,1,987,48,3
6201,2,21,right,male,4,,32,BadSelf.bmp,Tra.bmp,Normalself,bad,self,No,k,,,,m,0,639,64,4
6201,2,21,right,male,4,,33,NormalSelf.bmp,C.bmp,Goodself,normal,self,No,k,,,,,0,0,96,6
6201,2,21,right,male,4,,34,BadOther.bmp,T.bmp,Badother,bad,other,Yes,m,,,,m,1,855,112,7
6201,2,21,right,male,4,,35,BadSelf.bmp,D.bmp,Badself,bad,self,Yes,m,,,,m,1,291,160,10
6201,2,21,right,male,4,,36,NormalOther.bmp,S.bmp,Normalother,normal,other,Yes,m,,,,k,0,1007,128,8
6201,2,21,right,male,4,,37,BadOther.bmp,T.bmp,Badother,bad,other,Yes,m,,,,m,1,603,112,7
6201,2,21,right,male,4,,38,GoodSelf.bmp,C.bmp,Goodself,good,self,Yes,m,,,,m,1,692,176,11
6201,2,21,right,male,4,,39,GoodOther.bmp,P.bmp,Goodother,good,other,Yes,m,,,,m,1,1025,128,8
6201,2,21,right,male,4,,40,GoodSelf.bmp,Tra.bmp,Normalself,good,self,No,k,,,,k,1,837,80,5
6201,2,21,right,male,4,,41,GoodSelf.bmp,C.bmp,Goodself,good,self,Yes,m,,,,m,1,857,176,11
6201,2,21,right,male,4,,42,BadOther.bmp,D.bmp,Badself,bad,other,No,k,,,,m,0,957,16,1
6201,2,21,right,male,4,,43,BadOther.bmp,T.bmp,Badother,bad,other,Yes,m,,,,,0,0,112,7
6201,2,21,right,male,4,,44,BadSelf.bmp,D.bmp,Badself,bad,self,Yes,m,,,,m,1,973,160,10
6201,2,21,right,male,4,,45,GoodOther.bmp,P.bmp,Goodother,good,other,Yes,m,,,,m,1,665,128,8
6201,2,21,right,male,4,,46,BadSelf.bmp,D.bmp,Badself,bad,self,Yes,m,,,,m,1,653,160,10
6201,2,21,right,male,4,,47,GoodSelf.bmp,C.bmp,Goodself,good,self,Yes,m,,,,m,1,321,176,11
6201,2,21,right,male,4,,48,BadOther.bmp,T.bmp,Badother,bad,other,Yes,m,,,,m,1,637,112,7
6201,2,21,right,male,4,,49,GoodOther.bmp,P.bmp,Goodother,good,other,Yes,m,,,,m,1,575,128,8
6201,2,21,right,male,4,,50,NormalSelf.bmp,Tra.bmp,Normalself,normal,self,Yes,m,,,,m,1,546,192,12
6201,2,21,right,male,4,,51,NormalOther.bmp,T.bmp,Badother,normal,other,No,k,,,,k,1,1005,48,3
6201,2,21,right,male,4,,52,GoodSelf.bmp,C.bmp,Goodself,good,self,Yes,m,,,,m,1,857,176,11
6201,2,21,right,male,4,,53,GoodSelf.bmp,C.bmp,Goodself,good,self,Yes,m,,,,m,1,461,176,11
6201,2,21,right,male,4,,54,BadSelf.bmp,T.bmp,Badother,bad,self,No,k,,,,m,0,633,64,4
6201,2,21,right,male,4,,55,BadSelf.bmp,D.bmp,Badself,bad,self,Yes,m,,,,m,1,605,160,10
6201,2,21,right,male,4,,56,NormalSelf.bmp,D.bmp,Badself,normal,self,No,k,,,,,0,0,96,6
6201,2,21,right,male,4,,57,GoodSelf.bmp,P.bmp,Goodother,good,self,No,k,,,,m,0,685,80,5
6201,2,21,right,male,4,,58,BadOther.bmp,T.bmp,Badother,bad,other,Yes,m,,,,,0,0,112,7
6201,2,21,right,male,4,,59,BadOther.bmp,C.bmp,Goodself,bad,other,No,k,,,,k,1,709,16,1
6201,2,21,right,male,4,,60,NormalOther.bmp,S.bmp,Normalother,normal,other,Yes,m,,,,m,1,383,128,8
6201,2,21,right,male,4,,61,BadOther.bmp,T.bmp,Badother,bad,other,Yes,m,,,,m,1,980,112,7
6201,2,21,right,male,4,,62,NormalOther.bmp,S.bmp,Normalother,normal,other,Yes,m,,,,m,1,808,128,8
6201,2,21,right,male,4,,63,NormalSelf.bmp,Tra.bmp,Normalself,normal,self,Yes,m,,,,m,1,331,192,12
6201,2,21,right,male,4,,64,NormalOther.bmp,S.bmp,Normalother,normal,other,Yes,m,,,,m,1,943,128,8
6201,2,21,right,male,4,,65,BadOther.bmp,T.bmp,Badother,bad,other,Yes,m,,,,m,1,651,112,7
6201,2,21,right,male,4,,66,NormalSelf.bmp,S.bmp,Normalother,normal,self,No,k,,,,m,0,775,96,6
6201,2,21,right,male,4,,67,NormalOther.bmp,S.bmp,Normalother,normal,other,Yes,m,,,,m,1,275,128,8
6201,2,21,right,male,4,,68,GoodSelf.bmp,C.bmp,Goodself,good,self,Yes,m,,,,m,1,295,176,11
6201,2,21,right,male,4,,69,GoodOther.bmp,S.bmp,Normalother,good,other,No,k,,,,m,0,547,32,2
6201,2,21,right,male,4,,70,GoodOther.bmp,P.bmp,Goodother,good,other,Yes,m,,,,m,1,703,128,8
6201,2,21,right,male,4,,71,BadOther.bmp,T.bmp,Badother,bad,other,Yes,m,,,,k,0,1023,112,7
6201,2,21,right,male,4,,72,BadSelf.bmp,P.bmp,Goodother,bad,self,No,k,,,,k,1,858,64,4
6201,2,21,right,male,4,,73,NormalSelf.bmp,P.bmp,Goodother,normal,self,No,k,,,,k,1,1006,96,6
6201,2,21,right,male,4,,74,BadOther.bmp,P.bmp,Goodother,bad,other,No,k,,,,,0,0,16,1
6201,2,21,right,male,4,,75,GoodSelf.bmp,C.bmp,Goodself,good,self,Yes,m,,,,m,1,318,176,11
6201,2,21,right,male,4,,76,NormalOther.bmp,S.bmp,Normalother,normal,other,Yes,m,,,,m,1,777,128,8
6201,2,21,right,male,4,,77,BadSelf.bmp,D.bmp,Badself,bad,self,Yes,m,,,,m,1,373,160,10
6201,2,21,right,male,4,,78,GoodSelf.bmp,C.bmp,Goodself,good,self,Yes,m,,,,m,1,913,176,11
6201,2,21,right,male,4,,79,GoodOther.bmp,P.bmp,Goodother,good,other,Yes,m,,,,m,1,573,128,8
6201,2,21,right,male,4,,80,GoodSelf.bmp,S.bmp,Normalother,good,self,No,k,,,,k,1,449,80,5
6201,2,21,right,male,4,,81,BadOther.bmp,Tra.bmp,Normalself,bad,other,No,k,,,,m,0,525,16,1
6201,2,21,right,male,4,,82,NormalSelf.bmp,Tra.bmp,Normalself,normal,self,Yes,m,,,,m,1,815,192,12
6201,2,21,right,male,4,,83,GoodSelf.bmp,C.bmp,Goodself,good,self,Yes,m,,,,m,1,408,176,11
6201,2,21,right,male,4,,84,NormalOther.bmp,S.bmp,Normalother,normal,other,Yes,m,,,,m,1,844,128,8
6201,2,21,right,male,4,,85,BadOther.bmp,T.bmp,Badother,bad,other,Yes,m,,,,m,1,680,112,7
6201,2,21,right,male,4,,86,BadSelf.bmp,D.bmp,Badself,bad,self,Yes,m,,,,m,1,348,160,10
6201,2,21,right,male,4,,87,NormalOther.bmp,S.bmp,Normalother,normal,other,Yes,m,,,,m,1,552,128,8
6201,2,21,right,male,4,,88,NormalOther.bmp,S.bmp,Normalother,normal,other,Yes,m,,,,m,1,819,128,8
6201,2,21,right,male,4,,89,NormalOther.bmp,Tra.bmp,Normalself,normal,other,No,k,,,,k,1,767,48,3
6201,2,21,right,male,4,,90,GoodOther.bmp,Tra.bmp,Normalself,good,other,No,k,,,,m,0,819,32,2
6201,2,21,right,male,5,,1,BadOther.bmp,T.bmp,Badother,bad,other,Yes,m,,,,m,1,656,112,7
6201,2,21,right,male,5,,2,BadSelf.bmp,S.bmp,Normalother,bad,self,No,k,,,,k,1,548,64,4
6201,2,21,right,male,5,,3,GoodSelf.bmp,C.bmp,Goodself,good,self,Yes,m,,,,m,1,576,176,11
6201,2,21,right,male,5,,4,BadSelf.bmp,D.bmp,Badself,bad,self,Yes,m,,,,m,1,772,160,10
6201,2,21,right,male,5,,5,GoodOther.bmp,P.bmp,Goodother,good,other,Yes,m,,,,m,1,840,128,8
6201,2,21,right,male,5,,6,GoodSelf.bmp,P.bmp,Goodother,good,self,No,k,,,,m,0,700,80,5
6201,2,21,right,male,5,,7,NormalOther.bmp,S.bmp,Normalother,normal,other,Yes,m,,,,m,1,629,128,8
6201,2,21,right,male,5,,8,GoodOther.bmp,P.bmp,Goodother,good,other,Yes,m,,,,m,1,682,128,8
6201,2,21,right,male,5,,9,NormalSelf.bmp,Tra.bmp,Normalself,normal,self,Yes,m,,,,m,1,798,192,12
6201,2,21,right,male,5,,10,BadSelf.bmp,C.bmp,Goodself,bad,self,No,k,,,,k,1,890,64,4
6201,2,21,right,male,5,,11,GoodSelf.bmp,Tra.bmp,Normalself,good,self,No,k,,,,k,1,766,80,5
6201,2,21,right,male,5,,12,GoodOther.bmp,P.bmp,Goodother,good,other,Yes,m,,,,m,1,354,128,8
6201,2,21,right,male,5,,13,NormalOther.bmp,Tra.bmp,Normalself,normal,other,No,k,,,,k,1,934,48,3
6201,2,21,right,male,5,,14,NormalSelf.bmp,Tra.bmp,Normalself,normal,self,Yes,m,,,,m,1,378,192,12
6201,2,21,right,male,5,,15,NormalOther.bmp,P.bmp,Goodother,normal,other,No,k,,,,k,1,678,48,3
6201,2,21,right,male,5,,16,GoodSelf.bmp,C.bmp,Goodself,good,self,Yes,m,,,,m,1,626,176,11
6201,2,21,right,male,5,,17,NormalOther.bmp,S.bmp,Normalother,normal,other,Yes,m,,,,k,0,502,128,8
6201,2,21,right,male,5,,18,BadSelf.bmp,D.bmp,Badself,bad,self,Yes,m,,,,m,1,1072,160,10
6201,2,21,right,male,5,,19,GoodSelf.bmp,S.bmp,Normalother,good,self,No,k,,,,k,1,476,80,5
6201,2,21,right,male,5,,20,GoodSelf.bmp,C.bmp,Goodself,good,self,Yes,m,,,,m,1,480,176,11
6201,2,21,right,male,5,,21,BadOther.bmp,T.bmp,Badother,bad,other,Yes,m,,,,m,1,708,112,7
6201,2,21,right,male,5,,22,NormalOther.bmp,S.bmp,Normalother,normal,other,Yes,m,,,,m,1,440,128,8
6201,2,21,right,male,5,,23,NormalSelf.bmp,Tra.bmp,Normalself,normal,self,Yes,m,,,,m,1,572,192,12
6201,2,21,right,male,5,,24,GoodSelf.bmp,C.bmp,Goodself,good,self,Yes,m,,,,m,1,568,176,11
6201,2,21,right,male,5,,25,BadOther.bmp,P.bmp,Goodother,bad,other,No,k,,,,k,1,1012,16,1
6201,2,21,right,male,5,,26,NormalOther.bmp,S.bmp,Normalother,normal,other,Yes,m,,,,m,1,808,128,8
6201,2,21,right,male,5,,27,GoodOther.bmp,P.bmp,Goodother,good,other,Yes,m,,,,m,1,500,128,8
6201,2,21,right,male,5,,28,BadOther.bmp,T.bmp,Badother,bad,other,Yes,m,,,,m,1,424,112,7
6201,2,21,right,male,5,,29,BadSelf.bmp,D.bmp,Badself,bad,self,Yes,m,,,,k,0,600,160,10
6201,2,21,right,male,5,,30,BadOther.bmp,T.bmp,Badother,bad,other,Yes,m,,,,m,1,505,112,7
6201,2,21,right,male,5,,31,GoodOther.bmp,D.bmp,Badself,good,other,No,k,,,,k,1,717,32,2
6201,2,21,right,male,5,,32,NormalOther.bmp,S.bmp,Normalother,normal,other,Yes,m,,,,m,1,984,128,8
6201,2,21,right,male,5,,33,GoodOther.bmp,P.bmp,Goodother,good,other,Yes,m,,,,m,1,460,128,8
6201,2,21,right,male,5,,34,GoodSelf.bmp,C.bmp,Goodself,good,self,Yes,m,,,,m,1,640,176,11
6201,2,21,right,male,5,,35,NormalOther.bmp,T.bmp,Badother,normal,other,No,k,,,,m,0,708,48,3
6201,2,21,right,male,5,,36,BadOther.bmp,C.bmp,Goodself,bad,other,No,k,,,,k,1,552,16,1
6201,2,21,right,male,5,,37,NormalSelf.bmp,Tra.bmp,Normalself,normal,self,Yes,m,,,,m,1,588,192,12
6201,2,21,right,male,5,,38,GoodSelf.bmp,D.bmp,Badself,good,self,No,k,,,,k,1,856,80,5
6201,2,21,right,male,5,,39,NormalSelf.bmp,Tra.bmp,Normalself,normal,self,Yes,m,,,,m,1,572,192,12
6201,2,21,right,male,5,,40,GoodOther.bmp,T.bmp,Badother,good,other,No,k,,,,k,1,556,32,2
6201,2,21,right,male,5,,41,BadSelf.bmp,D.bmp,Badself,bad,self,Yes,m,,,,k,0,703,160,10
6201,2,21,right,male,5,,42,BadOther.bmp,Tra.bmp,Normalself,bad,other,No,k,,,,k,1,1043,16,1
6201,2,21,right,male,5,,43,GoodOther.bmp,P.bmp,Goodother,good,other,Yes,m,,,,m,1,695,128,8
6201,2,21,right,male,5,,44,NormalOther.bmp,D.bmp,Badself,normal,other,No,k,,,,k,1,770,48,3
6201,2,21,right,male,5,,45,GoodOther.bmp,P.bmp,Goodother,good,other,Yes,m,,,,m,1,750,128,8
6201,2,21,right,male,5,,46,GoodSelf.bmp,C.bmp,Goodself,good,self,Yes,m,,,,m,1,346,176,11
6201,2,21,right,male,5,,47,GoodOther.bmp,C.bmp,Goodself,good,other,No,k,,,,m,0,630,32,2
6201,2,21,right,male,5,,48,GoodSelf.bmp,C.bmp,Goodself,good,self,Yes,m,,,,m,1,466,176,11
6201,2,21,right,male,5,,49,NormalSelf.bmp,Tra.bmp,Normalself,normal,self,Yes,m,,,,m,1,974,192,12
6201,2,21,right,male,5,,50,GoodSelf.bmp,C.bmp,Goodself,good,self,Yes,m,,,,m,1,682,176,11
6201,2,21,right,male,5,,51,GoodOther.bmp,S.bmp,Normalother,good,other,No,k,,,,k,1,434,32,2
6201,2,21,right,male,5,,52,NormalSelf.bmp,Tra.bmp,Normalself,normal,self,Yes,m,,,,m,1,429,192,12
6201,2,21,right,male,5,,53,NormalSelf.bmp,D.bmp,Badself,normal,self,No,k,,,,k,1,409,96,6
6201,2,21,right,male,5,,54,BadSelf.bmp,D.bmp,Badself,bad,self,Yes,m,,,,m,1,677,160,10
6201,2,21,right,male,5,,55,BadSelf.bmp,D.bmp,Badself,bad,self,Yes,m,,,,m,1,689,160,10
6201,2,21,right,male,5,,56,NormalOther.bmp,S.bmp,Normalother,normal,other,Yes,m,,,,,0,0,128,8
6201,2,21,right,male,5,,57,NormalOther.bmp,S.bmp,Normalother,normal,other,Yes,m,,,,m,1,592,128,8
6201,2,21,right,male,5,,58,NormalOther.bmp,S.bmp,Normalother,normal,other,Yes,m,,,,m,1,412,128,8
6201,2,21,right,male,5,,59,NormalSelf.bmp,C.bmp,Goodself,normal,self,No,k,,,,k,1,480,96,6
6201,2,21,right,male,5,,60,NormalSelf.bmp,S.bmp,Normalother,normal,self,No,k,,,,k,1,884,96,6
6201,2,21,right,male,5,,61,BadOther.bmp,T.bmp,Badother,bad,other,Yes,m,,,,m,1,416,112,7
6201,2,21,right,male,5,,62,NormalSelf.bmp,Tra.bmp,Normalself,normal,self,Yes,m,,,,m,1,528,192,12
6201,2,21,right,male,5,,63,BadSelf.bmp,D.bmp,Badself,bad,self,Yes,m,,,,m,1,729,160,10
6201,2,21,right,male,5,,64,GoodOther.bmp,P.bmp,Goodother,good,other,Yes,m,,,,,0,0,128,8
6201,2,21,right,male,5,,65,NormalSelf.bmp,Tra.bmp,Normalself,normal,self,Yes,m,,,,m,1,441,192,12
6201,2,21,right,male,5,,66,NormalOther.bmp,S.bmp,Normalother,normal,other,Yes,m,,,,m,1,373,128,8
6201,2,21,right,male,5,,67,BadOther.bmp,T.bmp,Badother,bad,other,Yes,m,,,,m,1,537,112,7
6201,2,21,right,male,5,,68,BadSelf.bmp,D.bmp,Badself,bad,self,Yes,m,,,,m,1,765,160,10
6201,2,21,right,male,5,,69,NormalSelf.bmp,T.bmp,Badother,normal,self,No,k,,,,k,1,776,96,6
6201,2,21,right,male,5,,70,BadSelf.bmp,D.bmp,Badself,bad,self,Yes,m,,,,m,1,708,160,10
6201,2,21,right,male,5,,71,BadOther.bmp,T.bmp,Badother,bad,other,Yes,m,,,,m,1,608,112,7
6201,2,21,right,male,5,,72,NormalSelf.bmp,P.bmp,Goodother,normal,self,No,k,,,,m,0,588,96,6
6201,2,21,right,male,5,,73,BadSelf.bmp,P.bmp,Goodother,bad,self,No,k,,,,k,1,806,64,4
6201,2,21,right,male,5,,74,BadOther.bmp,T.bmp,Badother,bad,other,Yes,m,,,,m,1,775,112,7
6201,2,21,right,male,5,,75,BadSelf.bmp,D.bmp,Badself,bad,self,Yes,m,,,,m,1,635,160,10
6201,2,21,right,male,5,,76,NormalOther.bmp,C.bmp,Goodself,normal,other,No,k,,,,k,1,623,48,3
6201,2,21,right,male,5,,77,NormalOther.bmp,S.bmp,Normalother,normal,other,Yes,m,,,,m,1,635,128,8
6201,2,21,right,male,5,,78,BadOther.bmp,T.bmp,Badother,bad,other,Yes,m,,,,m,1,479,112,7
6201,2,21,right,male,5,,79,GoodOther.bmp,Tra.bmp,Normalself,good,other,No,k,,,,k,1,411,32,2
6201,2,21,right,male,5,,80,BadSelf.bmp,T.bmp,Badother,bad,self,No,k,,,,k,1,863,64,4
6201,2,21,right,male,5,,81,BadOther.bmp,D.bmp,Badself,bad,other,No,k,,,,k,1,643,16,1
6201,2,21,right,male,5,,82,GoodSelf.bmp,T.bmp,Badother,good,self,No,k,,,,m,0,534,80,5
6201,2,21,right,male,5,,83,NormalSelf.bmp,Tra.bmp,Normalself,normal,self,Yes,m,,,,m,1,650,192,12
6201,2,21,right,male,5,,84,GoodSelf.bmp,C.bmp,Goodself,good,self,Yes,m,,,,m,1,770,176,11
6201,2,21,right,male,5,,85,GoodOther.bmp,P.bmp,Goodother,good,other,Yes,m,,,,k,0,597,128,8
6201,2,21,right,male,5,,86,GoodSelf.bmp,C.bmp,Goodself,good,self,Yes,m,,,,m,1,297,176,11
6201,2,21,right,male,5,,87,BadOther.bmp,S.bmp,Normalother,bad,other,No,k,,,,m,0,613,16,1
6201,2,21,right,male,5,,88,BadSelf.bmp,Tra.bmp,Normalself,bad,self,No,k,,,,k,1,569,64,4
6201,2,21,right,male,5,,89,BadOther.bmp,T.bmp,Badother,bad,other,Yes,m,,,,m,1,685,112,7
6201,2,21,right,male,5,,90,GoodOther.bmp,P.bmp,Goodother,good,other,Yes,m,,,,m,1,609,128,8
6201,2,21,right,male,6,,1,GoodSelf.bmp,C.bmp,Goodself,good,self,Yes,m,,,,m,1,381,176,11
6201,2,21,right,male,6,,2,NormalSelf.bmp,Tra.bmp,Normalself,normal,self,Yes,m,,,,m,1,469,192,12
6201,2,21,right,male,6,,3,NormalOther.bmp,S.bmp,Normalother,normal,other,Yes,m,,,,m,1,818,128,8
6201,2,21,right,male,6,,4,NormalOther.bmp,S.bmp,Normalother,normal,other,Yes,m,,,,m,1,310,128,8
6201,2,21,right,male,6,,5,NormalSelf.bmp,Tra.bmp,Normalself,normal,self,Yes,m,,,,m,1,505,192,12
6201,2,21,right,male,6,,6,GoodSelf.bmp,T.bmp,Badother,good,self,No,k,,,,k,1,773,80,5
6201,2,21,right,male,6,,7,GoodOther.bmp,P.bmp,Goodother,good,other,Yes,m,,,,m,1,681,128,8
6201,2,21,right,male,6,,8,BadOther.bmp,S.bmp,Normalother,bad,other,No,k,,,,k,1,525,16,1
6201,2,21,right,male,6,,9,GoodOther.bmp,P.bmp,Goodother,good,other,Yes,m,,,,m,1,505,128,8
6201,2,21,right,male,6,,10,BadSelf.bmp,D.bmp,Badself,bad,self,Yes,m,,,,m,1,685,160,10
6201,2,21,right,male,6,,11,GoodSelf.bmp,S.bmp,Normalother,good,self,No,k,,,,k,1,449,80,5
6201,2,21,right,male,6,,12,GoodOther.bmp,P.bmp,Goodother,good,other,Yes,m,,,,m,1,621,128,8
6201,2,21,right,male,6,,13,GoodSelf.bmp,D.bmp,Badself,good,self,No,k,,,,k,1,445,80,5
6201,2,21,right,male,6,,14,NormalSelf.bmp,Tra.bmp,Normalself,normal,self,Yes,m,,,,m,1,394,192,12
6201,2,21,right,male,6,,15,NormalSelf.bmp,Tra.bmp,Normalself,normal,self,Yes,m,,,,m,1,382,192,12
6201,2,21,right,male,6,,16,GoodOther.bmp,P.bmp,Goodother,good,other,Yes,m,,,,m,1,1058,128,8
6201,2,21,right,male,6,,17,NormalOther.bmp,Tra.bmp,Normalself,normal,other,No,k,,,,,0,0,48,3
6201,2,21,right,male,6,,18,NormalOther.bmp,P.bmp,Goodother,normal,other,No,k,,,,k,1,633,48,3
6201,2,21,right,male,6,,19,BadOther.bmp,T.bmp,Badother,bad,other,Yes,m,,,,m,1,805,112,7
6201,2,21,right,male,6,,20,NormalSelf.bmp,C.bmp,Goodself,normal,self,No,k,,,,k,1,673,96,6
6201,2,21,right,male,6,,21,GoodOther.bmp,D.bmp,Badself,good,other,No,k,,,,k,1,965,32,2
6201,2,21,right,male,6,,22,GoodOther.bmp,P.bmp,Goodother,good,other,Yes,m,,,,m,1,553,128,8
6201,2,21,right,male,6,,23,NormalOther.bmp,S.bmp,Normalother,normal,other,Yes,m,,,,m,1,925,128,8
6201,2,21,right,male,6,,24,BadSelf.bmp,Tra.bmp,Normalself,bad,self,No,k,,,,k,1,669,64,4
6201,2,21,right,male,6,,25,GoodSelf.bmp,C.bmp,Goodself,good,self,Yes,m,,,,m,1,610,176,11
6201,2,21,right,male,6,,26,BadSelf.bmp,D.bmp,Badself,bad,self,Yes,m,,,,k,0,798,160,10
6201,2,21,right,male,6,,27,NormalOther.bmp,S.bmp,Normalother,normal,other,Yes,m,,,,m,1,650,128,8
6201,2,21,right,male,6,,28,NormalSelf.bmp,Tra.bmp,Normalself,normal,self,Yes,m,,,,m,1,414,192,12
6201,2,21,right,male,6,,29,BadOther.bmp,T.bmp,Badother,bad,other,Yes,m,,,,m,1,849,112,7
6201,2,21,right,male,6,,30,BadOther.bmp,T.bmp,Badother,bad,other,Yes,m,,,,m,1,493,112,7
6201,2,21,right,male,6,,31,NormalSelf.bmp,Tra.bmp,Normalself,normal,self,Yes,m,,,,m,1,857,192,12
6201,2,21,right,male,6,,32,GoodSelf.bmp,C.bmp,Goodself,good,self,Yes,m,,,,m,1,365,176,11
6201,2,21,right,male,6,,33,NormalOther.bmp,S.bmp,Normalother,normal,other,Yes,m,,,,m,1,833,128,8
6201,2,21,right,male,6,,34,NormalOther.bmp,D.bmp,Badself,normal,other,No,k,,,,k,1,851,48,3
6201,2,21,right,male,6,,35,BadSelf.bmp,D.bmp,Badself,bad,self,Yes,m,,,,m,1,443,160,10
6201,2,21,right,male,6,,36,GoodSelf.bmp,C.bmp,Goodself,good,self,Yes,m,,,,m,1,328,176,11
6201,2,21,right,male,6,,37,GoodSelf.bmp,C.bmp,Goodself,good,self,Yes,m,,,,m,1,396,176,11
6201,2,21,right,male,6,,38,BadSelf.bmp,D.bmp,Badself,bad,self,Yes,m,,,,m,1,640,160,10
6201,2,21,right,male,6,,39,GoodOther.bmp,P.bmp,Goodother,good,other,Yes,m,,,,m,1,532,128,8
6201,2,21,right,male,6,,40,NormalSelf.bmp,Tra.bmp,Normalself,normal,self,Yes,m,,,,m,1,744,192,12
6201,2,21,right,male,6,,41,NormalOther.bmp,S.bmp,Normalother,normal,other,Yes,m,,,,m,1,540,128,8
6201,2,21,right,male,6,,42,BadOther.bmp,T.bmp,Badother,bad,other,Yes,m,,,,m,1,711,112,7
6201,2,21,right,male,6,,43,BadOther.bmp,P.bmp,Goodother,bad,other,No,k,,,,k,1,523,16,1
6201,2,21,right,male,6,,44,BadSelf.bmp,C.bmp,Goodself,bad,self,No,k,,,,k,1,903,64,4
6201,2,21,right,male,6,,45,GoodSelf.bmp,C.bmp,Goodself,good,self,Yes,m,,,,m,1,339,176,11
6201,2,21,right,male,6,,46,BadOther.bmp,T.bmp,Badother,bad,other,Yes,m,,,,m,1,475,112,7
6201,2,21,right,male,6,,47,GoodSelf.bmp,Tra.bmp,Normalself,good,self,No,k,,,,m,0,568,80,5
6201,2,21,right,male,6,,48,GoodOther.bmp,T.bmp,Badother,good,other,No,k,,,,,0,0,32,2
6201,2,21,right,male,6,,49,GoodOther.bmp,P.bmp,Goodother,good,other,Yes,m,,,,m,1,656,128,8
6201,2,21,right,male,6,,50,BadSelf.bmp,D.bmp,Badself,bad,self,Yes,m,,,,m,1,756,160,10
6201,2,21,right,male,6,,51,NormalSelf.bmp,S.bmp,Normalother,normal,self,No,k,,,,k,1,560,96,6
6201,2,21,right,male,6,,52,GoodOther.bmp,Tra.bmp,Normalself,good,other,No,k,,,,k,1,516,32,2
6201,2,21,right,male,6,,53,BadOther.bmp,T.bmp,Badother,bad,other,Yes,m,,,,,0,0,112,7
6201,2,21,right,male,6,,54,NormalSelf.bmp,T.bmp,Badother,normal,self,No,k,,,,k,1,660,96,6
6201,2,21,right,male,6,,55,NormalSelf.bmp,P.bmp,Goodother,normal,self,No,k,,,,k,1,1071,96,6
6201,2,21,right,male,6,,56,NormalSelf.bmp,Tra.bmp,Normalself,normal,self,Yes,m,,,,m,1,569,192,12
6201,2,21,right,male,6,,57,BadSelf.bmp,D.bmp,Badself,bad,self,Yes,m,,,,m,1,593,160,10
6201,2,21,right,male,6,,58,BadOther.bmp,T.bmp,Badother,bad,other,Yes,m,,,,m,1,670,112,7
6201,2,21,right,male,6,,59,BadSelf.bmp,P.bmp,Goodother,bad,self,No,k,,,,k,1,634,64,4
6201,2,21,right,male,6,,60,GoodSelf.bmp,C.bmp,Goodself,good,self,Yes,m,,,,,0,0,176,11
6201,2,21,right,male,6,,61,GoodOther.bmp,S.bmp,Normalother,good,other,No,k,,,,k,1,754,32,2
6201,2,21,right,male,6,,62,NormalOther.bmp,S.bmp,Normalother,normal,other,Yes,m,,,,m,1,366,128,8
6201,2,21,right,male,6,,63,GoodOther.bmp,C.bmp,Goodself,good,other,No,k,,,,k,1,922,32,2
6201,2,21,right,male,6,,64,BadOther.bmp,Tra.bmp,Normalself,bad,other,No,k,,,,m,0,990,16,1
6201,2,21,right,male,6,,65,BadOther.bmp,T.bmp,Badother,bad,other,Yes,m,,,,m,1,882,112,7
6201,2,21,right,male,6,,66,BadSelf.bmp,D.bmp,Badself,bad,self,Yes,m,,,,m,1,838,160,10
6201,2,21,right,male,6,,67,BadSelf.bmp,D.bmp,Badself,bad,self,Yes,m,,,,m,1,591,160,10
6201,2,21,right,male,6,,68,BadSelf.bmp,D.bmp,Badself,bad,self,Yes,m,,,,m,1,399,160,10
6201,2,21,right,male,6,,69,NormalOther.bmp,T.bmp,Badother,normal,other,No,k,,,,k,1,876,48,3
6201,2,21,right,male,6,,70,NormalOther.bmp,S.bmp,Normalother,normal,other,Yes,m,,,,m,1,352,128,8
6201,2,21,right,male,6,,71,NormalSelf.bmp,D.bmp,Badself,normal,self,No,k,,,,,0,0,96,6
6201,2,21,right,male,6,,72,GoodOther.bmp,P.bmp,Goodother,good,other,Yes,m,,,,m,1,768,128,8
6201,2,21,right,male,6,,73,GoodSelf.bmp,C.bmp,Goodself,good,self,Yes,m,,,,m,1,284,176,11
6201,2,21,right,male,6,,74,BadOther.bmp,C.bmp,Goodself,bad,other,No,k,,,,k,1,544,16,1
6201,2,21,right,male,6,,75,NormalOther.bmp,S.bmp,Normalother,normal,other,Yes,m,,,,m,1,396,128,8
6201,2,21,right,male,6,,76,BadOther.bmp,D.bmp,Badself,bad,other,No,k,,,,m,0,736,16,1
6201,2,21,right,male,6,,77,GoodSelf.bmp,C.bmp,Goodself,good,self,Yes,m,,,,,0,0,176,11
6201,2,21,right,male,6,,78,BadOther.bmp,T.bmp,Badother,bad,other,Yes,m,,,,m,1,960,112,7
6201,2,21,right,male,6,,79,NormalSelf.bmp,Tra.bmp,Normalself,normal,self,Yes,m,,,,m,1,616,192,12
6201,2,21,right,male,6,,80,GoodOther.bmp,P.bmp,Goodother,good,other,Yes,m,,,,m,1,1004,128,8
6201,2,21,right,male,6,,81,BadOther.bmp,T.bmp,Badother,bad,other,Yes,m,,,,,0,0,112,7
6201,2,21,right,male,6,,82,GoodOther.bmp,P.bmp,Goodother,good,other,Yes,m,,,,m,1,524,128,8
6201,2,21,right,male,6,,83,NormalOther.bmp,C.bmp,Goodself,normal,other,No,k,,,,m,0,736,48,3
6201,2,21,right,male,6,,84,GoodSelf.bmp,C.bmp,Goodself,good,self,Yes,m,,,,m,1,452,176,11
6201,2,21,right,male,6,,85,BadSelf.bmp,T.bmp,Badother,bad,self,No,k,,,,,0,0,64,4
6201,2,21,right,male,6,,86,NormalSelf.bmp,Tra.bmp,Normalself,normal,self,Yes,m,,,,m,1,428,192,12
6201,2,21,right,male,6,,87,NormalOther.bmp,S.bmp,Normalother,normal,other,Yes,m,,,,m,1,304,128,8
6201,2,21,right,male,6,,88,GoodSelf.bmp,P.bmp,Goodother,good,self,No,k,,,,,0,0,80,5
6201,2,21,right,male,6,,89,BadSelf.bmp,D.bmp,Badself,bad,self,Yes,m,,,,,0,0,160,10
6201,2,21,right,male,6,,90,BadSelf.bmp,S.bmp,Normalother,bad,self,No,k,,,,k,1,918,64,4
6201,2,21,right,male,7,,1,NormalSelf.bmp,T.bmp,Badother,normal,self,No,k,,,,k,1,711,96,6
6201,2,21,right,male,7,,2,GoodOther.bmp,P.bmp,Goodother,good,other,Yes,m,,,,m,1,411,128,8
6201,2,21,right,male,7,,3,GoodSelf.bmp,C.bmp,Goodself,good,self,Yes,m,,,,m,1,431,176,11
6201,2,21,right,male,7,,4,NormalOther.bmp,S.bmp,Normalother,normal,other,Yes,m,,,,m,1,715,128,8
6201,2,21,right,male,7,,5,NormalSelf.bmp,Tra.bmp,Normalself,normal,self,Yes,m,,,,,0,0,192,12
6201,2,21,right,male,7,,6,BadOther.bmp,T.bmp,Badother,bad,other,Yes,m,,,,m,1,891,112,7
6201,2,21,right,male,7,,7,NormalSelf.bmp,Tra.bmp,Normalself,normal,self,Yes,m,,,,m,1,447,192,12
6201,2,21,right,male,7,,8,NormalOther.bmp,S.bmp,Normalother,normal,other,Yes,m,,,,m,1,1011,128,8
6201,2,21,right,male,7,,9,NormalOther.bmp,S.bmp,Normalother,normal,other,Yes,m,,,,m,1,399,128,8
6201,2,21,right,male,7,,10,GoodOther.bmp,P.bmp,Goodother,good,other,Yes,m,,,,m,1,743,128,8
6201,2,21,right,male,7,,11,GoodSelf.bmp,C.bmp,Goodself,good,self,Yes,m,,,,m,1,636,176,11
6201,2,21,right,male,7,,12,GoodSelf.bmp,C.bmp,Goodself,good,self,Yes,m,,,,m,1,456,176,11
6201,2,21,right,male,7,,13,NormalSelf.bmp,C.bmp,Goodself,normal,self,No,k,,,,k,1,699,96,6
6201,2,21,right,male,7,,14,GoodSelf.bmp,P.bmp,Goodother,good,self,No,k,,,,k,1,935,80,5
6201,2,21,right,male,7,,15,NormalOther.bmp,Tra.bmp,Normalself,normal,other,No,k,,,,k,1,675,48,3
6201,2,21,right,male,7,,16,GoodSelf.bmp,C.bmp,Goodself,good,self,Yes,m,,,,m,1,535,176,11
6201,2,21,right,male,7,,17,BadOther.bmp,T.bmp,Badother,bad,other,Yes,m,,,,m,1,411,112,7
6201,2,21,right,male,7,,18,NormalOther.bmp,S.bmp,Normalother,normal,other,Yes,m,,,,m,1,871,128,8
6201,2,21,right,male,7,,19,GoodOther.bmp,P.bmp,Goodother,good,other,Yes,m,,,,m,1,587,128,8
6201,2,21,right,male,7,,20,NormalSelf.bmp,P.bmp,Goodother,normal,self,No,k,,,,m,0,477,96,6
6201,2,21,right,male,7,,21,NormalSelf.bmp,Tra.bmp,Normalself,normal,self,Yes,m,,,,m,1,485,192,12
6201,2,21,right,male,7,,22,GoodOther.bmp,P.bmp,Goodother,good,other,Yes,m,,,,m,1,506,128,8
6201,2,21,right,male,7,,23,GoodSelf.bmp,C.bmp,Goodself,good,self,Yes,m,,,,m,1,262,176,11
6201,2,21,right,male,7,,24,BadOther.bmp,T.bmp,Badother,bad,other,Yes,m,,,,k,0,802,112,7
6201,2,21,right,male,7,,25,BadOther.bmp,S.bmp,Normalother,bad,other,No,k,,,,,0,0,16,1
6201,2,21,right,male,7,,26,GoodSelf.bmp,C.bmp,Goodself,good,self,Yes,m,,,,,0,0,176,11
6201,2,21,right,male,7,,27,BadOther.bmp,Tra.bmp,Normalself,bad,other,No,k,,,,,0,0,16,1
6201,2,21,right,male,7,,28,NormalSelf.bmp,Tra.bmp,Normalself,normal,self,Yes,m,,,,m,1,929,192,12
6201,2,21,right,male,7,,29,GoodOther.bmp,P.bmp,Goodother,good,other,Yes,m,,,,m,1,381,128,8
6201,2,21,right,male,7,,30,NormalOther.bmp,S.bmp,Normalother,normal,other,Yes,m,,,,m,1,729,128,8
6201,2,21,right,male,7,,31,NormalSelf.bmp,Tra.bmp,Normalself,normal,self,Yes,m,,,,m,1,539,192,12
6201,2,21,right,male,7,,32,GoodSelf.bmp,C.bmp,Goodself,good,self,Yes,m,,,,m,1,571,176,11
6201,2,21,right,male,7,,33,BadOther.bmp,T.bmp,Badother,bad,other,Yes,m,,,,m,1,1024,112,7
6201,2,21,right,male,7,,34,BadOther.bmp,T.bmp,Badother,bad,other,Yes,m,,,,m,1,500,112,7
6201,2,21,right,male,7,,35,BadSelf.bmp,D.bmp,Badself,bad,self,Yes,m,,,,m,1,360,160,10
6201,2,21,right,male,7,,36,BadSelf.bmp,D.bmp,Badself,bad,self,Yes,m,,,,,0,0,160,10
6201,2,21,right,male,7,,37,NormalOther.bmp,C.bmp,Goodself,normal,other,No,k,,,,k,1,832,48,3
6201,2,21,right,male,7,,38,GoodSelf.bmp,C.bmp,Goodself,good,self,Yes,m,,,,m,1,403,176,11
6201,2,21,right,male,7,,39,BadOther.bmp,C.bmp,Goodself,bad,other,No,k,,,,k,1,727,16,1
6201,2,21,right,male,7,,40,BadSelf.bmp,D.bmp,Badself,bad,self,Yes,m,,,,m,1,955,160,10
6201,2,21,right,male,7,,41,BadOther.bmp,T.bmp,Badother,bad,other,Yes,m,,,,m,1,703,112,7
6201,2,21,right,male,7,,42,NormalOther.bmp,S.bmp,Normalother,normal,other,Yes,m,,,,m,1,729,128,8
6201,2,21,right,male,7,,43,GoodSelf.bmp,D.bmp,Badself,good,self,No,k,,,,m,0,530,80,5
6201,2,21,right,male,7,,44,BadSelf.bmp,D.bmp,Badself,bad,self,Yes,m,,,,m,1,958,160,10
6201,2,21,right,male,7,,45,NormalSelf.bmp,Tra.bmp,Normalself,normal,self,Yes,m,,,,m,1,610,192,12
6201,2,21,right,male,7,,46,GoodOther.bmp,P.bmp,Goodother,good,other,Yes,m,,,,m,1,566,128,8
6201,2,21,right,male,7,,47,GoodOther.bmp,P.bmp,Goodother,good,other,Yes,m,,,,m,1,354,128,8
6201,2,21,right,male,7,,48,GoodSelf.bmp,C.bmp,Goodself,good,self,Yes,m,,,,m,1,582,176,11
6201,2,21,right,male,7,,49,GoodOther.bmp,Tra.bmp,Normalself,good,other,No,k,,,,m,0,706,32,2
6201,2,21,right,male,7,,50,BadOther.bmp,T.bmp,Badother,bad,other,Yes,m,,,,,0,0,112,7
6201,2,21,right,male,7,,51,BadSelf.bmp,D.bmp,Badself,bad,self,Yes,m,,,,m,1,921,160,10
6201,2,21,right,male,7,,52,GoodOther.bmp,P.bmp,Goodother,good,other,Yes,m,,,,,0,0,128,8
6201,2,21,right,male,7,,53,BadOther.bmp,P.bmp,Goodother,bad,other,No,k,,,,m,0,457,16,1
6201,2,21,right,male,7,,54,BadSelf.bmp,D.bmp,Badself,bad,self,Yes,m,,,,m,1,418,160,10
6201,2,21,right,male,7,,55,NormalOther.bmp,T.bmp,Badother,normal,other,No,k,,,,m,0,1094,48,3
6201,2,21,right,male,7,,56,BadSelf.bmp,Tra.bmp,Normalself,bad,self,No,k,,,,,0,0,64,4
6201,2,21,right,male,7,,57,GoodSelf.bmp,C.bmp,Goodself,good,self,Yes,m,,,,m,1,462,176,11
6201,2,21,right,male,7,,58,BadOther.bmp,T.bmp,Badother,bad,other,Yes,m,,,,m,1,618,112,7
6201,2,21,right,male,7,,59,NormalOther.bmp,D.bmp,Badself,normal,other,No,k,,,,k,1,982,48,3
6201,2,21,right,male,7,,60,NormalSelf.bmp,D.bmp,Badself,normal,self,No,k,,,,,0,0,96,6
6201,2,21,right,male,7,,61,NormalOther.bmp,S.bmp,Normalother,normal,other,Yes,m,,,,m,1,534,128,8
6201,2,21,right,male,7,,62,BadSelf.bmp,T.bmp,Badother,bad,self,No,k,,,,k,1,618,64,4
6201,2,21,right,male,7,,63,GoodSelf.bmp,S.bmp,Normalother,good,self,No,k,,,,k,1,685,80,5
6201,2,21,right,male,7,,64,NormalOther.bmp,P.bmp,Goodother,normal,other,No,k,,,,,0,0,48,3
6201,2,21,right,male,7,,65,NormalOther.bmp,S.bmp,Normalother,normal,other,Yes,m,,,,m,1,896,128,8
6201,2,21,right,male,7,,66,GoodSelf.bmp,T.bmp,Badother,good,self,No,k,,,,k,1,764,80,5
6201,2,21,right,male,7,,67,GoodOther.bmp,P.bmp,Goodother,good,other,Yes,m,,,,m,1,632,128,8
6201,2,21,right,male,7,,68,BadSelf.bmp,S.bmp,Normalother,bad,self,No,k,,,,k,1,1020,64,4
6201,2,21,right,male,7,,69,BadOther.bmp,D.bmp,Badself,bad,other,No,k,,,,k,1,952,16,1
6201,2,21,right,male,7,,70,BadSelf.bmp,D.bmp,Badself,bad,self,Yes,m,,,,m,1,404,160,10
6201,2,21,right,male,7,,71,BadOther.bmp,T.bmp,Badother,bad,other,Yes,m,,,,m,1,696,112,7
6201,2,21,right,male,7,,72,GoodOther.bmp,D.bmp,Badself,good,other,No,k,,,,k,1,732,32,2
6201,2,21,right,male,7,,73,GoodOther.bmp,T.bmp,Badother,good,other,No,k,,,,k,1,536,32,2
6201,2,21,right,male,7,,74,BadSelf.bmp,D.bmp,Badself,bad,self,Yes,m,,,,m,1,1004,160,10
6201,2,21,right,male,7,,75,GoodOther.bmp,P.bmp,Goodother,good,other,Yes,m,,,,m,1,718,128,8
6201,2,21,right,male,7,,76,GoodOther.bmp,S.bmp,Normalother,good,other,No,k,,,,m,0,974,32,2
6201,2,21,right,male,7,,77,BadSelf.bmp,D.bmp,Badself,bad,self,Yes,m,,,,m,1,858,160,10
6201,2,21,right,male,7,,78,BadSelf.bmp,C.bmp,Goodself,bad,self,No,k,,,,m,0,718,64,4
6201,2,21,right,male,7,,79,NormalSelf.bmp,Tra.bmp,Normalself,normal,self,Yes,m,,,,,0,0,192,12
6201,2,21,right,male,7,,80,BadSelf.bmp,D.bmp,Badself,bad,self,Yes,m,,,,,0,0,160,10
6201,2,21,right,male,7,,81,NormalSelf.bmp,Tra.bmp,Normalself,normal,self,Yes,m,,,,m,1,442,192,12
6201,2,21,right,male,7,,82,NormalOther.bmp,S.bmp,Normalother,normal,other,Yes,m,,,,m,1,622,128,8
6201,2,21,right,male,7,,83,GoodSelf.bmp,Tra.bmp,Normalself,good,self,No,k,,,,k,1,898,80,5
6201,2,21,right,male,7,,84,NormalSelf.bmp,Tra.bmp,Normalself,normal,self,Yes,m,,,,m,1,766,192,12
6201,2,21,right,male,7,,85,NormalSelf.bmp,S.bmp,Normalother,normal,self,No,k,,,,k,1,522,96,6
6201,2,21,right,male,7,,86,BadSelf.bmp,P.bmp,Goodother,bad,self,No,k,,,,k,1,1012,64,4
6201,2,21,right,male,7,,87,NormalSelf.bmp,Tra.bmp,Normalself,normal,self,Yes,m,,,,m,1,829,192,12
6201,2,21,right,male,7,,88,BadOther.bmp,T.bmp,Badother,bad,other,Yes,m,,,,m,1,744,112,7
6201,2,21,right,male,7,,89,NormalOther.bmp,S.bmp,Normalother,normal,other,Yes,m,,,,m,1,700,128,8
6201,2,21,right,male,7,,90,GoodOther.bmp,C.bmp,Goodself,good,other,No,k,,,,k,1,648,32,2
6201,2,21,right,male,8,,1,NormalSelf.bmp,Tra.bmp,Normalself,normal,self,Yes,m,,,,m,1,462,192,12
6201,2,21,right,male,8,,2,NormalOther.bmp,S.bmp,Normalother,normal,other,Yes,m,,,,m,1,450,128,8
6201,2,21,right,male,8,,3,GoodSelf.bmp,P.bmp,Goodother,good,self,No,k,,,,k,1,478,80,5
6201,2,21,right,male,8,,4,BadOther.bmp,Tra.bmp,Normalself,bad,other,No,k,,,,k,1,722,16,1
6201,2,21,right,male,8,,5,BadSelf.bmp,D.bmp,Badself,bad,self,Yes,m,,,,m,1,870,160,10
6201,2,21,right,male,8,,6,GoodSelf.bmp,C.bmp,Goodself,good,self,Yes,m,,,,m,1,338,176,11
6201,2,21,right,male,8,,7,NormalOther.bmp,Tra.bmp,Normalself,normal,other,No,k,,,,m,0,596,48,3
6201,2,21,right,male,8,,8,GoodSelf.bmp,C.bmp,Goodself,good,self,Yes,m,,,,m,1,529,176,11
6201,2,21,right,male,8,,9,BadSelf.bmp,D.bmp,Badself,bad,self,Yes,m,,,,m,1,421,160,10
6201,2,21,right,male,8,,10,GoodSelf.bmp,C.bmp,Goodself,good,self,Yes,m,,,,m,1,305,176,11
6201,2,21,right,male,8,,11,GoodSelf.bmp,C.bmp,Goodself,good,self,Yes,m,,,,m,1,381,176,11
6201,2,21,right,male,8,,12,BadSelf.bmp,T.bmp,Badother,bad,self,No,k,,,,,0,0,64,4
6201,2,21,right,male,8,,13,NormalSelf.bmp,P.bmp,Goodother,normal,self,No,k,,,,k,1,804,96,6
6201,2,21,right,male,8,,14,NormalOther.bmp,S.bmp,Normalother,normal,other,Yes,m,,,,m,1,320,128,8
6201,2,21,right,male,8,,15,BadSelf.bmp,D.bmp,Badself,bad,self,Yes,m,,,,m,1,876,160,10
6201,2,21,right,male,8,,16,BadSelf.bmp,D.bmp,Badself,bad,self,Yes,m,,,,m,1,536,160,10
6201,2,21,right,male,8,,17,GoodSelf.bmp,S.bmp,Normalother,good,self,No,k,,,,k,1,692,80,5
6201,2,21,right,male,8,,18,BadOther.bmp,D.bmp,Badself,bad,other,No,k,,,,,0,0,16,1
6201,2,21,right,male,8,,19,BadOther.bmp,T.bmp,Badother,bad,other,Yes,m,,,,m,1,601,112,7
6201,2,21,right,male,8,,20,GoodOther.bmp,P.bmp,Goodother,good,other,Yes,m,,,,m,1,765,128,8
6201,2,21,right,male,8,,21,NormalSelf.bmp,Tra.bmp,Normalself,normal,self,Yes,m,,,,m,1,849,192,12
6201,2,21,right,male,8,,22,BadSelf.bmp,D.bmp,Badself,bad,self,Yes,m,,,,m,1,373,160,10
6201,2,21,right,male,8,,23,GoodSelf.bmp,Tra.bmp,Normalself,good,self,No,k,,,,k,1,617,80,5
6201,2,21,right,male,8,,24,NormalOther.bmp,S.bmp,Normalother,normal,other,Yes,m,,,,m,1,917,128,8
6201,2,21,right,male,8,,25,GoodSelf.bmp,C.bmp,Goodself,good,self,Yes,m,,,,m,1,288,176,11
6201,2,21,right,male,8,,26,GoodOther.bmp,P.bmp,Goodother,good,other,Yes,m,,,,k,0,684,128,8
6201,2,21,right,male,8,,27,NormalOther.bmp,T.bmp,Badother,normal,other,No,k,,,,k,1,992,48,3
6201,2,21,right,male,8,,28,BadOther.bmp,S.bmp,Normalother,bad,other,No,k,,,,k,1,540,16,1
6201,2,21,right,male,8,,29,GoodSelf.bmp,C.bmp,Goodself,good,self,Yes,m,,,,m,1,708,176,11
6201,2,21,right,male,8,,30,NormalSelf.bmp,T.bmp,Badother,normal,self,No,k,,,,k,1,969,96,6
6201,2,21,right,male,8,,31,NormalOther.bmp,D.bmp,Badself,normal,other,No,k,,,,k,1,669,48,3
6201,2,21,right,male,8,,32,NormalSelf.bmp,S.bmp,Normalother,normal,self,No,k,,,,k,1,857,96,6
6201,2,21,right,male,8,,33,BadOther.bmp,P.bmp,Goodother,bad,other,No,k,,,,k,1,685,16,1
6201,2,21,right,male,8,,34,NormalSelf.bmp,Tra.bmp,Normalself,normal,self,Yes,m,,,,m,1,433,192,12
6201,2,21,right,male,8,,35,GoodSelf.bmp,C.bmp,Goodself,good,self,Yes,m,,,,m,1,317,176,11
6201,2,21,right,male,8,,36,GoodOther.bmp,P.bmp,Goodother,good,other,Yes,m,,,,m,1,377,128,8
6201,2,21,right,male,8,,37,GoodOther.bmp,P.bmp,Goodother,good,other,Yes,m,,,,m,1,492,128,8
6201,2,21,right,male,8,,38,GoodSelf.bmp,T.bmp,Badother,good,self,No,k,,,,k,1,448,80,5
6201,2,21,right,male,8,,39,BadOther.bmp,T.bmp,Badother,bad,other,Yes,m,,,,m,1,866,112,7
6201,2,21,right,male,8,,40,BadSelf.bmp,P.bmp,Goodother,bad,self,No,k,,,,k,1,922,64,4
6201,2,21,right,male,8,,41,BadOther.bmp,T.bmp,Badother,bad,other,Yes,m,,,,m,1,671,112,7
6201,2,21,right,male,8,,42,BadSelf.bmp,D.bmp,Badself,bad,self,Yes,m,,,,m,1,403,160,10
6201,2,21,right,male,8,,43,NormalSelf.bmp,Tra.bmp,Normalself,normal,self,Yes,m,,,,m,1,671,192,12
6201,2,21,right,male,8,,44,NormalOther.bmp,S.bmp,Normalother,normal,other,Yes,m,,,,m,1,619,128,8
6201,2,21,right,male,8,,45,NormalOther.bmp,P.bmp,Goodother,normal,other,No,k,,,,k,1,655,48,3
6201,2,21,right,male,8,,46,GoodOther.bmp,P.bmp,Goodother,good,other,Yes,m,,,,m,1,811,128,8
6201,2,21,right,male,8,,47,GoodOther.bmp,C.bmp,Goodself,good,other,No,k,,,,k,1,455,32,2
6201,2,21,right,male,8,,48,NormalOther.bmp,S.bmp,Normalother,normal,other,Yes,m,,,,m,1,723,128,8
6201,2,21,right,male,8,,49,BadOther.bmp,T.bmp,Badother,bad,other,Yes,m,,,,,0,0,112,7
6201,2,21,right,male,8,,50,GoodSelf.bmp,C.bmp,Goodself,good,self,Yes,m,,,,m,1,600,176,11
6201,2,21,right,male,8,,51,NormalOther.bmp,S.bmp,Normalother,normal,other,Yes,m,,,,m,1,681,128,8
6201,2,21,right,male,8,,52,GoodSelf.bmp,C.bmp,Goodself,good,self,Yes,m,,,,m,1,629,176,11
6201,2,21,right,male,8,,53,BadSelf.bmp,D.bmp,Badself,bad,self,Yes,m,,,,m,1,385,160,10
6201,2,21,right,male,8,,54,GoodOther.bmp,D.bmp,Badself,good,other,No,k,,,,k,1,725,32,2
6201,2,21,right,male,8,,55,BadOther.bmp,T.bmp,Badother,bad,other,Yes,m,,,,,0,0,112,7
6201,2,21,right,male,8,,56,BadSelf.bmp,D.bmp,Badself,bad,self,Yes,m,,,,m,1,805,160,10
6201,2,21,right,male,8,,57,NormalOther.bmp,S.bmp,Normalother,normal,other,Yes,m,,,,m,1,417,128,8
6201,2,21,right,male,8,,58,NormalOther.bmp,C.bmp,Goodself,normal,other,No,k,,,,k,1,717,48,3
6201,2,21,right,male,8,,59,GoodOther.bmp,T.bmp,Badother,good,other,No,k,,,,k,1,625,32,2
6201,2,21,right,male,8,,60,NormalOther.bmp,S.bmp,Normalother,normal,other,Yes,m,,,,m,1,949,128,8
6201,2,21,right,male,8,,61,BadOther.bmp,C.bmp,Goodself,bad,other,No,k,,,,m,0,711,16,1
6201,2,21,right,male,8,,62,BadOther.bmp,T.bmp,Badother,bad,other,Yes,m,,,,m,1,703,112,7
6201,2,21,right,male,8,,63,GoodOther.bmp,P.bmp,Goodother,good,other,Yes,m,,,,m,1,467,128,8
6201,2,21,right,male,8,,64,GoodOther.bmp,P.bmp,Goodother,good,other,Yes,m,,,,m,1,887,128,8
6201,2,21,right,male,8,,65,NormalSelf.bmp,Tra.bmp,Normalself,normal,self,Yes,m,,,,m,1,411,192,12
6201,2,21,right,male,8,,66,GoodOther.bmp,P.bmp,Goodother,good,other,Yes,m,,,,m,1,631,128,8
6201,2,21,right,male,8,,67,NormalSelf.bmp,Tra.bmp,Normalself,normal,self,Yes,m,,,,,0,0,192,12
6201,2,21,right,male,8,,68,BadSelf.bmp,S.bmp,Normalother,bad,self,No,k,,,,k,1,735,64,4
6201,2,21,right,male,8,,69,NormalSelf.bmp,Tra.bmp,Normalself,normal,self,Yes,m,,,,m,1,411,192,12
6201,2,21,right,male,8,,70,GoodOther.bmp,P.bmp,Goodother,good,other,Yes,m,,,,m,1,503,128,8
6201,2,21,right,male,8,,71,BadSelf.bmp,D.bmp,Badself,bad,self,Yes,m,,,,,0,0,160,10
6201,2,21,right,male,8,,72,BadOther.bmp,T.bmp,Badother,bad,other,Yes,m,,,,m,1,693,112,7
6201,2,21,right,male,8,,73,GoodOther.bmp,P.bmp,Goodother,good,other,Yes,m,,,,,0,0,128,8
6201,2,21,right,male,8,,74,GoodSelf.bmp,D.bmp,Badself,good,self,No,k,,,,,0,0,80,5
6201,2,21,right,male,8,,75,BadOther.bmp,T.bmp,Badother,bad,other,Yes,m,,,,,0,0,112,7
6201,2,21,right,male,8,,76,NormalOther.bmp,S.bmp,Normalother,normal,other,Yes,m,,,,,0,0,128,8
6201,2,21,right,male,8,,77,BadOther.bmp,T.bmp,Badother,bad,other,Yes,m,,,,m,1,437,112,7
6201,2,21,right,male,8,,78,NormalSelf.bmp,D.bmp,Badself,normal,self,No,k,,,,k,1,673,96,6
6201,2,21,right,male,8,,79,NormalOther.bmp,S.bmp,Normalother,normal,other,Yes,m,,,,,0,0,128,8
6201,2,21,right,male,8,,80,NormalSelf.bmp,Tra.bmp,Normalself,normal,self,Yes,m,,,,m,1,553,192,12
6201,2,21,right,male,8,,81,BadOther.bmp,T.bmp,Badother,bad,other,Yes,m,,,,m,1,421,112,7
6201,2,21,right,male,8,,82,GoodSelf.bmp,C.bmp,Goodself,good,self,Yes,m,,,,m,1,809,176,11
6201,2,21,right,male,8,,83,NormalSelf.bmp,C.bmp,Goodself,normal,self,No,k,,,,,0,0,96,6
6201,2,21,right,male,8,,84,BadSelf.bmp,Tra.bmp,Normalself,bad,self,No,k,,,,k,1,702,64,4
6201,2,21,right,male,8,,85,GoodOther.bmp,S.bmp,Normalother,good,other,No,k,,,,m,0,650,32,2
6201,2,21,right,male,8,,86,NormalSelf.bmp,Tra.bmp,Normalself,normal,self,Yes,m,,,,m,1,766,192,12
6201,2,21,right,male,8,,87,GoodOther.bmp,Tra.bmp,Normalself,good,other,No,k,,,,k,1,969,32,2
6201,2,21,right,male,8,,88,BadSelf.bmp,C.bmp,Goodself,bad,self,No,k,,,,k,1,517,64,4
6201,2,21,right,male,8,,89,BadSelf.bmp,D.bmp,Badself,bad,self,Yes,m,,,,m,1,561,160,10
6201,2,21,right,male,8,,90,NormalSelf.bmp,Tra.bmp,Normalself,normal,self,Yes,m,,,,m,1,797,192,12
6201,2,21,right,male,9,,1,BadOther.bmp,T.bmp,Badother,bad,other,Yes,m,,,,m,1,516,112,7
6201,2,21,right,male,9,,2,GoodSelf.bmp,C.bmp,Goodself,good,self,Yes,m,,,,m,1,552,176,11
6201,2,21,right,male,9,,3,GoodOther.bmp,P.bmp,Goodother,good,other,Yes,m,,,,m,1,692,128,8
6201,2,21,right,male,9,,4,NormalSelf.bmp,Tra.bmp,Normalself,normal,self,Yes,m,,,,m,1,936,192,12
6201,2,21,right,male,9,,5,BadSelf.bmp,D.bmp,Badself,bad,self,Yes,m,,,,m,1,396,160,10
6201,2,21,right,male,9,,6,GoodOther.bmp,Tra.bmp,Normalself,good,other,No,k,,,,k,1,592,32,2
6201,2,21,right,male,9,,7,GoodOther.bmp,P.bmp,Goodother,good,other,Yes,m,,,,m,1,412,128,8
6201,2,21,right,male,9,,8,GoodSelf.bmp,T.bmp,Badother,good,self,No,k,,,,k,1,440,80,5
6201,2,21,right,male,9,,9,BadOther.bmp,T.bmp,Badother,bad,other,Yes,m,,,,m,1,652,112,7
6201,2,21,right,male,9,,10,GoodSelf.bmp,P.bmp,Goodother,good,self,No,k,,,,k,1,683,80,5
6201,2,21,right,male,9,,11,NormalSelf.bmp,Tra.bmp,Normalself,normal,self,Yes,m,,,,m,1,496,192,12
6201,2,21,right,male,9,,12,BadSelf.bmp,C.bmp,Goodself,bad,self,No,k,,,,k,1,972,64,4
6201,2,21,right,male,9,,13,BadSelf.bmp,D.bmp,Badself,bad,self,Yes,m,,,,m,1,776,160,10
6201,2,21,right,male,9,,14,NormalSelf.bmp,P.bmp,Goodother,normal,self,No,k,,,,k,1,996,96,6
6201,2,21,right,male,9,,15,GoodOther.bmp,P.bmp,Goodother,good,other,Yes,m,,,,m,1,808,128,8
6201,2,21,right,male,9,,16,BadSelf.bmp,Tra.bmp,Normalself,bad,self,No,k,,,,k,1,500,64,4
6201,2,21,right,male,9,,17,NormalSelf.bmp,Tra.bmp,Normalself,normal,self,Yes,m,,,,m,1,928,192,12
6201,2,21,right,male,9,,18,GoodSelf.bmp,S.bmp,Normalother,good,self,No,k,,,,k,1,492,80,5
6201,2,21,right,male,9,,19,BadOther.bmp,T.bmp,Badother,bad,other,Yes,m,,,,m,1,928,112,7
6201,2,21,right,male,9,,20,BadSelf.bmp,D.bmp,Badself,bad,self,Yes,m,,,,m,1,498,160,10
6201,2,21,right,male,9,,21,NormalOther.bmp,S.bmp,Normalother,normal,other,Yes,m,,,,m,1,706,128,8
6201,2,21,right,male,9,,22,NormalSelf.bmp,Tra.bmp,Normalself,normal,self,Yes,m,,,,m,1,446,192,12
6201,2,21,right,male,9,,23,GoodOther.bmp,P.bmp,Goodother,good,other,Yes,m,,,,m,1,530,128,8
6201,2,21,right,male,9,,24,GoodSelf.bmp,C.bmp,Goodself,good,self,Yes,m,,,,m,1,574,176,11
6201,2,21,right,male,9,,25,NormalOther.bmp,C.bmp,Goodself,normal,other,No,k,,,,k,1,922,48,3
6201,2,21,right,male,9,,26,BadSelf.bmp,T.bmp,Badother,bad,self,No,k,,,,k,1,622,64,4
6201,2,21,right,male,9,,27,NormalSelf.bmp,Tra.bmp,Normalself,normal,self,Yes,m,,,,m,1,378,192,12
6201,2,21,right,male,9,,28,NormalOther.bmp,T.bmp,Badother,normal,other,No,k,,,,,0,0,48,3
6201,2,21,right,male,9,,29,BadOther.bmp,T.bmp,Badother,bad,other,Yes,m,,,,m,1,586,112,7
6201,2,21,right,male,9,,30,GoodSelf.bmp,C.bmp,Goodself,good,self,Yes,m,,,,m,1,382,176,11
6201,2,21,right,male,9,,31,NormalSelf.bmp,S.bmp,Normalother,normal,self,No,k,,,,k,1,480,96,6
6201,2,21,right,male,9,,32,GoodOther.bmp,P.bmp,Goodother,good,other,Yes,m,,,,,0,0,128,8
6201,2,21,right,male,9,,33,BadOther.bmp,T.bmp,Badother,bad,other,Yes,m,,,,m,1,797,112,7
6201,2,21,right,male,9,,34,BadOther.bmp,T.bmp,Badother,bad,other,Yes,m,,,,m,1,769,112,7
6201,2,21,right,male,9,,35,GoodSelf.bmp,C.bmp,Goodself,good,self,Yes,m,,,,m,1,676,176,11
6201,2,21,right,male,9,,36,NormalOther.bmp,S.bmp,Normalother,normal,other,Yes,m,,,,m,1,712,128,8
6201,2,21,right,male,9,,37,BadSelf.bmp,D.bmp,Badself,bad,self,Yes,m,,,,m,1,436,160,10
6201,2,21,right,male,9,,38,GoodSelf.bmp,C.bmp,Goodself,good,self,Yes,m,,,,,0,0,176,11
6201,2,21,right,male,9,,39,GoodSelf.bmp,C.bmp,Goodself,good,self,Yes,m,,,,m,1,324,176,11
6201,2,21,right,male,9,,40,BadOther.bmp,S.bmp,Normalother,bad,other,No,k,,,,,0,0,16,1
6201,2,21,right,male,9,,41,BadSelf.bmp,S.bmp,Normalother,bad,self,No,k,,,,k,1,668,64,4
6201,2,21,right,male,9,,42,GoodOther.bmp,P.bmp,Goodother,good,other,Yes,m,,,,m,1,508,128,8
6201,2,21,right,male,9,,43,GoodOther.bmp,S.bmp,Normalother,good,other,No,k,,,,k,1,877,32,2
6201,2,21,right,male,9,,44,NormalOther.bmp,D.bmp,Badself,normal,other,No,k,,,,k,1,593,48,3
6201,2,21,right,male,9,,45,BadSelf.bmp,D.bmp,Badself,bad,self,Yes,m,,,,,0,0,160,10
6201,2,21,right,male,9,,46,NormalOther.bmp,S.bmp,Normalother,normal,other,Yes,m,,,,m,1,961,128,8
6201,2,21,right,male,9,,47,NormalOther.bmp,S.bmp,Normalother,normal,other,Yes,m,,,,m,1,381,128,8
6201,2,21,right,male,9,,48,NormalOther.bmp,S.bmp,Normalother,normal,other,Yes,m,,,,m,1,416,128,8
6201,2,21,right,male,9,,49,NormalSelf.bmp,Tra.bmp,Normalself,normal,self,Yes,m,,,,m,1,516,192,12
6201,2,21,right,male,9,,50,BadSelf.bmp,D.bmp,Badself,bad,self,Yes,m,,,,m,1,728,160,10
6201,2,21,right,male,9,,51,BadOther.bmp,C.bmp,Goodself,bad,other,No,k,,,,k,1,644,16,1
6201,2,21,right,male,9,,52,GoodOther.bmp,P.bmp,Goodother,good,other,Yes,m,,,,,0,0,128,8
6201,2,21,right,male,9,,53,NormalOther.bmp,P.bmp,Goodother,normal,other,No,k,,,,k,1,834,48,3
6201,2,21,right,male,9,,54,GoodSelf.bmp,D.bmp,Badself,good,self,No,k,,,,k,1,771,80,5
6201,2,21,right,male,9,,55,BadOther.bmp,Tra.bmp,Normalself,bad,other,No,k,,,,k,1,847,16,1
6201,2,21,right,male,9,,56,NormalSelf.bmp,C.bmp,Goodself,normal,self,No,k,,,,k,1,899,96,6
6201,2,21,right,male,9,,57,GoodOther.bmp,T.bmp,Badother,good,other,No,k,,,,k,1,927,32,2
6201,2,21,right,male,9,,58,BadOther.bmp,T.bmp,Badother,bad,other,Yes,m,,,,m,1,547,112,7
6201,2,21,right,male,9,,59,GoodOther.bmp,C.bmp,Goodself,good,other,No,k,,,,k,1,855,32,2
6201,2,21,right,male,9,,60,NormalOther.bmp,S.bmp,Normalother,normal,other,Yes,m,,,,m,1,986,128,8
6201,2,21,right,male,9,,61,GoodOther.bmp,P.bmp,Goodother,good,other,Yes,m,,,,m,1,598,128,8
6201,2,21,right,male,9,,62,NormalSelf.bmp,T.bmp,Badother,normal,self,No,k,,,,m,0,642,96,6
6201,2,21,right,male,9,,63,BadOther.bmp,T.bmp,Badother,bad,other,Yes,m,,,,m,1,494,112,7
6201,2,21,right,male,9,,64,NormalSelf.bmp,Tra.bmp,Normalself,normal,self,Yes,m,,,,,0,0,192,12
6201,2,21,right,male,9,,65,BadOther.bmp,P.bmp,Goodother,bad,other,No,k,,,,k,1,1001,16,1
6201,2,21,right,male,9,,66,GoodSelf.bmp,C.bmp,Goodself,good,self,Yes,m,,,,m,1,661,176,11
6201,2,21,right,male,9,,67,GoodSelf.bmp,C.bmp,Goodself,good,self,Yes,m,,,,m,1,705,176,11
6201,2,21,right,male,9,,68,BadSelf.bmp,D.bmp,Badself,bad,self,Yes,m,,,,m,1,437,160,10
6201,2,21,right,male,9,,69,BadSelf.bmp,D.bmp,Badself,bad,self,Yes,m,,,,m,1,721,160,10
6201,2,21,right,male,9,,70,BadSelf.bmp,P.bmp,Goodother,bad,self,No,k,,,,k,1,573,64,4
6201,2,21,right,male,9,,71,GoodOther.bmp,P.bmp,Goodother,good,other,Yes,m,,,,m,1,745,128,8
6201,2,21,right,male,9,,72,GoodSelf.bmp,C.bmp,Goodself,good,self,Yes,m,,,,m,1,749,176,11
6201,2,21,right,male,9,,73,BadOther.bmp,D.bmp,Badself,bad,other,No,k,,,,,0,0,16,1
6201,2,21,right,male,9,,74,BadOther.bmp,T.bmp,Badother,bad,other,Yes,m,,,,m,1,468,112,7
6201,2,21,right,male,9,,75,GoodOther.bmp,P.bmp,Goodother,good,other,Yes,m,,,,m,1,724,128,8
6201,2,21,right,male,9,,76,BadSelf.bmp,D.bmp,Badself,bad,self,Yes,m,,,,m,1,405,160,10
6201,2,21,right,male,9,,77,NormalSelf.bmp,Tra.bmp,Normalself,normal,self,Yes,m,,,,m,1,929,192,12
6201,2,21,right,male,9,,78,NormalOther.bmp,S.bmp,Normalother,normal,other,Yes,m,,,,,0,0,128,8
6201,2,21,right,male,9,,79,BadSelf.bmp,D.bmp,Badself,bad,self,Yes,m,,,,m,1,593,160,10
6201,2,21,right,male,9,,80,NormalSelf.bmp,Tra.bmp,Normalself,normal,self,Yes,m,,,,m,1,645,192,12
6201,2,21,right,male,9,,81,BadOther.bmp,T.bmp,Badother,bad,other,Yes,m,,,,,0,0,112,7
6201,2,21,right,male,9,,82,NormalOther.bmp,S.bmp,Normalother,normal,other,Yes,m,,,,m,1,1013,128,8
6201,2,21,right,male,9,,83,GoodSelf.bmp,C.bmp,Goodself,good,self,Yes,m,,,,m,1,721,176,11
6201,2,21,right,male,9,,84,GoodOther.bmp,D.bmp,Badself,good,other,No,k,,,,,0,0,32,2
6201,2,21,right,male,9,,85,NormalOther.bmp,Tra.bmp,Normalself,normal,other,No,k,,,,k,1,793,48,3
6201,2,21,right,male,9,,86,GoodSelf.bmp,Tra.bmp,Normalself,good,self,No,k,,,,k,1,874,80,5
6201,2,21,right,male,9,,87,NormalOther.bmp,S.bmp,Normalother,normal,other,Yes,m,,,,m,1,803,128,8
6201,2,21,right,male,9,,88,NormalSelf.bmp,Tra.bmp,Normalself,normal,self,Yes,m,,,,m,1,503,192,12
6201,2,21,right,male,9,,89,NormalSelf.bmp,D.bmp,Badself,normal,self,No,k,,,,k,1,515,96,6
6201,2,21,right,male,9,,90,NormalOther.bmp,S.bmp,Normalother,normal,other,Yes,m,,,,m,1,591,128,8
6201,2,21,right,male,10,,1,BadOther.bmp,T.bmp,Badother,bad,other,Yes,m,,,,m,1,583,112,7
6201,2,21,right,male,10,,2,GoodOther.bmp,Tra.bmp,Normalself,good,other,No,k,,,,k,1,819,32,2
6201,2,21,right,male,10,,3,NormalSelf.bmp,T.bmp,Badother,normal,self,No,k,,,,k,1,607,96,6
6201,2,21,right,male,10,,4,GoodOther.bmp,C.bmp,Goodself,good,other,No,k,,,,k,1,483,32,2
6201,2,21,right,male,10,,5,GoodSelf.bmp,C.bmp,Goodself,good,self,Yes,m,,,,m,1,423,176,11
6201,2,21,right,male,10,,6,BadOther.bmp,T.bmp,Badother,bad,other,Yes,m,,,,m,1,707,112,7
6201,2,21,right,male,10,,7,BadSelf.bmp,D.bmp,Badself,bad,self,Yes,m,,,,k,0,727,160,10
6201,2,21,right,male,10,,8,NormalOther.bmp,S.bmp,Normalother,normal,other,Yes,m,,,,,0,0,128,8
6201,2,21,right,male,10,,9,BadOther.bmp,T.bmp,Badother,bad,other,Yes,m,,,,m,1,671,112,7
6201,2,21,right,male,10,,10,GoodSelf.bmp,C.bmp,Goodself,good,self,Yes,m,,,,m,1,575,176,11
6201,2,21,right,male,10,,11,BadOther.bmp,T.bmp,Badother,bad,other,Yes,m,,,,m,1,788,112,7
6201,2,21,right,male,10,,12,NormalOther.bmp,Tra.bmp,Normalself,normal,other,No,k,,,,,0,0,48,3
6201,2,21,right,male,10,,13,BadSelf.bmp,D.bmp,Badself,bad,self,Yes,m,,,,m,1,532,160,10
6201,2,21,right,male,10,,14,NormalSelf.bmp,Tra.bmp,Normalself,normal,self,Yes,m,,,,m,1,359,192,12
6201,2,21,right,male,10,,15,BadOther.bmp,D.bmp,Badself,bad,other,No,k,,,,k,1,715,16,1
6201,2,21,right,male,10,,16,GoodSelf.bmp,C.bmp,Goodself,good,self,Yes,m,,,,m,1,1031,176,11
6201,2,21,right,male,10,,17,BadSelf.bmp,D.bmp,Badself,bad,self,Yes,m,,,,,0,0,160,10
6201,2,21,right,male,10,,18,GoodOther.bmp,P.bmp,Goodother,good,other,Yes,m,,,,,0,0,128,8
6201,2,21,right,male,10,,19,GoodSelf.bmp,C.bmp,Goodself,good,self,Yes,m,,,,m,1,475,176,11
6201,2,21,right,male,10,,20,NormalOther.bmp,S.bmp,Normalother,normal,other,Yes,m,,,,m,1,823,128,8
6201,2,21,right,male,10,,21,GoodOther.bmp,T.bmp,Badother,good,other,No,k,,,,,0,0,32,2
6201,2,21,right,male,10,,22,BadOther.bmp,T.bmp,Badother,bad,other,Yes,m,,,,m,1,460,112,7
6201,2,21,right,male,10,,23,BadOther.bmp,T.bmp,Badother,bad,other,Yes,m,,,,m,1,440,112,7
6201,2,21,right,male,10,,24,BadSelf.bmp,D.bmp,Badself,bad,self,Yes,m,,,,m,1,452,160,10
6201,2,21,right,male,10,,25,NormalSelf.bmp,Tra.bmp,Normalself,normal,self,Yes,m,,,,m,1,648,192,12
6201,2,21,right,male,10,,26,NormalOther.bmp,S.bmp,Normalother,normal,other,Yes,m,,,,m,1,363,128,8
6201,2,21,right,male,10,,27,NormalOther.bmp,S.bmp,Normalother,normal,other,Yes,m,,,,m,1,1087,128,8
6201,2,21,right,male,10,,28,GoodOther.bmp,P.bmp,Goodother,good,other,Yes,m,,,,m,1,795,128,8
6201,2,21,right,male,10,,29,NormalOther.bmp,S.bmp,Normalother,normal,other,Yes,m,,,,m,1,639,128,8
6201,2,21,right,male,10,,30,GoodOther.bmp,P.bmp,Goodother,good,other,Yes,m,,,,m,1,619,128,8
6201,2,21,right,male,10,,31,NormalOther.bmp,S.bmp,Normalother,normal,other,Yes,m,,,,m,1,597,128,8
6201,2,21,right,male,10,,32,BadSelf.bmp,Tra.bmp,Normalself,bad,self,No,k,,,,,0,0,64,4
6201,2,21,right,male,10,,33,BadOther.bmp,C.bmp,Goodself,bad,other,No,k,,,,m,0,626,16,1
6201,2,21,right,male,10,,34,BadSelf.bmp,P.bmp,Goodother,bad,self,No,k,,,,k,1,662,64,4
6201,2,21,right,male,10,,35,BadOther.bmp,Tra.bmp,Normalself,bad,other,No,k,,,,k,1,834,16,1
6201,2,21,right,male,10,,36,NormalOther.bmp,S.bmp,Normalother,normal,other,Yes,m,,,,m,1,910,128,8
6201,2,21,right,male,10,,37,GoodSelf.bmp,C.bmp,Goodself,good,self,Yes,m,,,,m,1,378,176,11
6201,2,21,right,male,10,,38,NormalSelf.bmp,Tra.bmp,Normalself,normal,self,Yes,m,,,,m,1,462,192,12
6201,2,21,right,male,10,,39,BadOther.bmp,S.bmp,Normalother,bad,other,No,k,,,,,0,0,16,1
6201,2,21,right,male,10,,40,BadOther.bmp,T.bmp,Badother,bad,other,Yes,m,,,,,0,0,112,7
6201,2,21,right,male,10,,41,NormalSelf.bmp,Tra.bmp,Normalself,normal,self,Yes,m,,,,m,1,689,192,12
6201,2,21,right,male,10,,42,NormalOther.bmp,T.bmp,Badother,normal,other,No,k,,,,,0,0,48,3
6201,2,21,right,male,10,,43,GoodSelf.bmp,C.bmp,Goodself,good,self,Yes,m,,,,,0,0,176,11
6201,2,21,right,male,10,,44,GoodOther.bmp,S.bmp,Normalother,good,other,No,k,,,,,0,0,32,2
6201,2,21,right,male,10,,45,GoodOther.bmp,P.bmp,Goodother,good,other,Yes,m,,,,,0,0,128,8
6201,2,21,right,male,10,,46,BadSelf.bmp,S.bmp,Normalother,bad,self,No,k,,,,k,1,472,64,4
6201,2,21,right,male,10,,47,NormalSelf.bmp,Tra.bmp,Normalself,normal,self,Yes,m,,,,m,1,540,192,12
6201,2,21,right,male,10,,48,GoodSelf.bmp,C.bmp,Goodself,good,self,Yes,m,,,,m,1,392,176,11
6201,2,21,right,male,10,,49,BadSelf.bmp,D.bmp,Badself,bad,self,Yes,m,,,,,0,0,160,10
6201,2,21,right,male,10,,50,BadOther.bmp,P.bmp,Goodother,bad,other,No,k,,,,k,1,1088,16,1
6201,2,21,right,male,10,,51,NormalSelf.bmp,P.bmp,Goodother,normal,self,No,k,,,,k,1,1075,96,6
6201,2,21,right,male,10,,52,NormalSelf.bmp,Tra.bmp,Normalself,normal,self,Yes,m,,,,m,1,543,192,12
6201,2,21,right,male,10,,53,GoodOther.bmp,P.bmp,Goodother,good,other,Yes,m,,,,m,1,425,128,8
6201,2,21,right,male,10,,54,GoodOther.bmp,P.bmp,Goodother,good,other,Yes,m,,,,,0,0,128,8
6201,2,21,right,male,10,,55,NormalOther.bmp,C.bmp,Goodself,normal,other,No,k,,,,m,0,646,48,3
6201,2,21,right,male,10,,56,GoodSelf.bmp,S.bmp,Normalother,good,self,No,k,,,,,0,0,80,5
6201,2,21,right,male,10,,57,NormalSelf.bmp,C.bmp,Goodself,normal,self,No,k,,,,k,1,1094,96,6
6201,2,21,right,male,10,,58,BadOther.bmp,T.bmp,Badother,bad,other,Yes,m,,,,m,1,610,112,7
6201,2,21,right,male,10,,59,NormalSelf.bmp,Tra.bmp,Normalself,normal,self,Yes,m,,,,m,1,502,192,12
6201,2,21,right,male,10,,60,NormalOther.bmp,S.bmp,Normalother,normal,other,Yes,m,,,,m,1,426,128,8
6201,2,21,right,male,10,,61,GoodSelf.bmp,C.bmp,Goodself,good,self,Yes,m,,,,m,1,334,176,11
6201,2,21,right,male,10,,62,NormalOther.bmp,S.bmp,Normalother,normal,other,Yes,m,,,,m,1,730,128,8
6201,2,21,right,male,10,,63,NormalSelf.bmp,Tra.bmp,Normalself,normal,self,Yes,m,,,,,0,0,192,12
6201,2,21,right,male,10,,64,NormalOther.bmp,D.bmp,Badself,normal,other,No,k,,,,k,1,847,48,3
6201,2,21,right,male,10,,65,BadOther.bmp,T.bmp,Badother,bad,other,Yes,m,,,,,0,0,112,7
6201,2,21,right,male,10,,66,GoodSelf.bmp,Tra.bmp,Normalself,good,self,No,k,,,,,0,0,80,5
6201,2,21,right,male,10,,67,BadSelf.bmp,D.bmp,Badself,bad,self,Yes,m,,,,m,1,508,160,10
6201,2,21,right,male,10,,68,GoodOther.bmp,D.bmp,Badself,good,other,No,k,,,,k,1,984,32,2
6201,2,21,right,male,10,,69,NormalSelf.bmp,S.bmp,Normalother,normal,self,No,k,,,,,0,0,96,6
6201,2,21,right,male,10,,70,BadSelf.bmp,D.bmp,Badself,bad,self,Yes,m,,,,m,1,752,160,10
6201,2,21,right,male,10,,71,BadSelf.bmp,T.bmp,Badother,bad,self,No,k,,,,k,1,644,64,4
6201,2,21,right,male,10,,72,GoodOther.bmp,P.bmp,Goodother,good,other,Yes,m,,,,m,1,544,128,8
6201,2,21,right,male,10,,73,BadSelf.bmp,D.bmp,Badself,bad,self,Yes,m,,,,,0,0,160,10
6201,2,21,right,male,10,,74,BadSelf.bmp,D.bmp,Badself,bad,self,Yes,m,,,,m,1,432,160,10
6201,2,21,right,male,10,,75,NormalSelf.bmp,Tra.bmp,Normalself,normal,self,Yes,m,,,,m,1,864,192,12
6201,2,21,right,male,10,,76,GoodOther.bmp,P.bmp,Goodother,good,other,Yes,m,,,,m,1,572,128,8
6201,2,21,right,male,10,,77,GoodSelf.bmp,C.bmp,Goodself,good,self,Yes,m,,,,m,1,456,176,11
6201,2,21,right,male,10,,78,GoodSelf.bmp,D.bmp,Badself,good,self,No,k,,,,k,1,420,80,5
6201,2,21,right,male,10,,79,NormalSelf.bmp,Tra.bmp,Normalself,normal,self,Yes,m,,,,,0,0,192,12
6201,2,21,right,male,10,,80,BadSelf.bmp,C.bmp,Goodself,bad,self,No,k,,,,k,1,668,64,4
6201,2,21,right,male,10,,81,GoodSelf.bmp,P.bmp,Goodother,good,self,No,k,,,,,0,0,80,5
6201,2,21,right,male,10,,82,BadSelf.bmp,D.bmp,Badself,bad,self,Yes,m,,,,m,1,1076,160,10
6201,2,21,right,male,10,,83,GoodOther.bmp,P.bmp,Goodother,good,other,Yes,m,,,,,0,0,128,8
6201,2,21,right,male,10,,84,GoodSelf.bmp,T.bmp,Badother,good,self,No,k,,,,k,1,908,80,5
6201,2,21,right,male,10,,85,NormalOther.bmp,P.bmp,Goodother,normal,other,No,k,,,,k,1,792,48,3
6201,2,21,right,male,10,,86,BadOther.bmp,T.bmp,Badother,bad,other,Yes,m,,,,m,1,1025,112,7
6201,2,21,right,male,10,,87,GoodSelf.bmp,C.bmp,Goodself,good,self,Yes,m,,,,,0,0,176,11
6201,2,21,right,male,10,,88,NormalSelf.bmp,D.bmp,Badself,normal,self,No,k,,,,k,1,665,96,6
6201,2,21,right,male,10,,89,NormalOther.bmp,S.bmp,Normalother,normal,other,Yes,m,,,,m,1,812,128,8
6201,2,21,right,male,10,,90,GoodOther.bmp,P.bmp,Goodother,good,other,Yes,m,,,,m,1,736,128,8
6201,2,21,right,male,11,,1,BadSelf.bmp,D.bmp,Badself,bad,self,Yes,m,,,,m,1,470,160,10
6201,2,21,right,male,11,,2,BadSelf.bmp,S.bmp,Normalother,bad,self,No,k,,,,k,1,505,64,4
6201,2,21,right,male,11,,3,BadSelf.bmp,D.bmp,Badself,bad,self,Yes,m,,,,m,1,509,160,10
6201,2,21,right,male,11,,4,GoodSelf.bmp,P.bmp,Goodother,good,self,No,k,,,,,0,0,80,5
6201,2,21,right,male,11,,5,GoodOther.bmp,P.bmp,Goodother,good,other,Yes,m,,,,m,1,893,128,8
6201,2,21,right,male,11,,6,GoodSelf.bmp,C.bmp,Goodself,good,self,Yes,m,,,,m,1,473,176,11
6201,2,21,right,male,11,,7,NormalOther.bmp,S.bmp,Normalother,normal,other,Yes,m,,,,m,1,805,128,8
6201,2,21,right,male,11,,8,BadSelf.bmp,C.bmp,Goodself,bad,self,No,k,,,,k,1,697,64,4
6201,2,21,right,male,11,,9,NormalSelf.bmp,Tra.bmp,Normalself,normal,self,Yes,m,,,,m,1,669,192,12
6201,2,21,right,male,11,,10,GoodSelf.bmp,C.bmp,Goodself,good,self,Yes,m,,,,m,1,445,176,11
6201,2,21,right,male,11,,11,NormalOther.bmp,S.bmp,Normalother,normal,other,Yes,m,,,,m,1,802,128,8
6201,2,21,right,male,11,,12,NormalOther.bmp,T.bmp,Badother,normal,other,No,k,,,,k,1,934,48,3
6201,2,21,right,male,11,,13,GoodOther.bmp,P.bmp,Goodother,good,other,Yes,m,,,,m,1,762,128,8
6201,2,21,right,male,11,,14,GoodOther.bmp,P.bmp,Goodother,good,other,Yes,m,,,,m,1,621,128,8
6201,2,21,right,male,11,,15,BadSelf.bmp,Tra.bmp,Normalself,bad,self,No,k,,,,m,0,569,64,4
6201,2,21,right,male,11,,16,NormalSelf.bmp,Tra.bmp,Normalself,normal,self,Yes,m,,,,m,1,397,192,12
6201,2,21,right,male,11,,17,NormalSelf.bmp,Tra.bmp,Normalself,normal,self,Yes,m,,,,,0,0,192,12
6201,2,21,right,male,11,,18,GoodOther.bmp,P.bmp,Goodother,good,other,Yes,m,,,,,0,0,128,8
6201,2,21,right,male,11,,19,BadOther.bmp,T.bmp,Badother,bad,other,Yes,m,,,,m,1,569,112,7
6201,2,21,right,male,11,,20,GoodOther.bmp,Tra.bmp,Normalself,good,other,No,k,,,,k,1,693,32,2
6201,2,21,right,male,11,,21,GoodSelf.bmp,D.bmp,Badself,good,self,No,k,,,,k,1,757,80,5
6201,2,21,right,male,11,,22,GoodOther.bmp,S.bmp,Normalother,good,other,No,k,,,,k,1,962,32,2
6201,2,21,right,male,11,,23,GoodOther.bmp,P.bmp,Goodother,good,other,Yes,m,,,,m,1,358,128,8
6201,2,21,right,male,11,,24,BadOther.bmp,T.bmp,Badother,bad,other,Yes,m,,,,,0,0,112,7
6201,2,21,right,male,11,,25,BadOther.bmp,T.bmp,Badother,bad,other,Yes,m,,,,m,1,638,112,7
6201,2,21,right,male,11,,26,BadOther.bmp,Tra.bmp,Normalself,bad,other,No,k,,,,k,1,938,16,1
6201,2,21,right,male,11,,27,BadOther.bmp,T.bmp,Badother,bad,other,Yes,m,,,,m,1,461,112,7
6201,2,21,right,male,11,,28,NormalSelf.bmp,Tra.bmp,Normalself,normal,self,Yes,m,,,,m,1,969,192,12
6201,2,21,right,male,11,,29,NormalSelf.bmp,Tra.bmp,Normalself,normal,self,Yes,m,,,,m,1,397,192,12
6201,2,21,right,male,11,,30,BadOther.bmp,D.bmp,Badself,bad,other,No,k,,,,,0,0,16,1
6201,2,21,right,male,11,,31,GoodOther.bmp,D.bmp,Badself,good,other,No,k,,,,,0,0,32,2
6201,2,21,right,male,11,,32,BadSelf.bmp,D.bmp,Badself,bad,self,Yes,m,,,,,0,0,160,10
6201,2,21,right,male,11,,33,NormalOther.bmp,S.bmp,Normalother,normal,other,Yes,m,,,,m,1,434,128,8
6201,2,21,right,male,11,,34,GoodSelf.bmp,S.bmp,Normalother,good,self,No,k,,,,k,1,830,80,5
6201,2,21,right,male,11,,35,BadOther.bmp,T.bmp,Badother,bad,other,Yes,m,,,,m,1,562,112,7
6201,2,21,right,male,11,,36,GoodOther.bmp,P.bmp,Goodother,good,other,Yes,m,,,,m,1,678,128,8
6201,2,21,right,male,11,,37,BadSelf.bmp,P.bmp,Goodother,bad,self,No,k,,,,,0,0,64,4
6201,2,21,right,male,11,,38,GoodSelf.bmp,C.bmp,Goodself,good,self,Yes,m,,,,m,1,350,176,11
6201,2,21,right,male,11,,39,GoodOther.bmp,P.bmp,Goodother,good,other,Yes,m,,,,m,1,634,128,8
6201,2,21,right,male,11,,40,BadOther.bmp,T.bmp,Badother,bad,other,Yes,m,,,,m,1,565,112,7
6201,2,21,right,male,11,,41,NormalSelf.bmp,D.bmp,Badself,normal,self,No,k,,,,,0,0,96,6
6201,2,21,right,male,11,,42,NormalSelf.bmp,Tra.bmp,Normalself,normal,self,Yes,m,,,,m,1,373,192,12
6201,2,21,right,male,11,,43,NormalSelf.bmp,P.bmp,Goodother,normal,self,No,k,,,,k,1,462,96,6
6201,2,21,right,male,11,,44,NormalSelf.bmp,Tra.bmp,Normalself,normal,self,Yes,m,,,,m,1,426,192,12
6201,2,21,right,male,11,,45,BadOther.bmp,T.bmp,Badother,bad,other,Yes,m,,,,m,1,598,112,7
6201,2,21,right,male,11,,46,NormalSelf.bmp,T.bmp,Badother,normal,self,No,k,,,,k,1,921,96,6
6201,2,21,right,male,11,,47,NormalSelf.bmp,Tra.bmp,Normalself,normal,self,Yes,m,,,,m,1,358,192,12
6201,2,21,right,male,11,,48,NormalOther.bmp,S.bmp,Normalother,normal,other,Yes,m,,,,k,0,882,128,8
6201,2,21,right,male,11,,49,GoodSelf.bmp,T.bmp,Badother,good,self,No,k,,,,k,1,1014,80,5
6201,2,21,right,male,11,,50,NormalSelf.bmp,Tra.bmp,Normalself,normal,self,Yes,m,,,,m,1,346,192,12
6201,2,21,right,male,11,,51,GoodSelf.bmp,C.bmp,Goodself,good,self,Yes,m,,,,m,1,446,176,11
6201,2,21,right,male,11,,52,BadOther.bmp,S.bmp,Normalother,bad,other,No,k,,,,k,1,673,16,1
6201,2,21,right,male,11,,53,BadSelf.bmp,D.bmp,Badself,bad,self,Yes,m,,,,m,1,829,160,10
6201,2,21,right,male,11,,54,BadOther.bmp,T.bmp,Badother,bad,other,Yes,m,,,,m,1,654,112,7
6201,2,21,right,male,11,,55,NormalOther.bmp,S.bmp,Normalother,normal,other,Yes,m,,,,m,1,922,128,8
6201,2,21,right,male,11,,56,BadOther.bmp,T.bmp,Badother,bad,other,Yes,m,,,,m,1,830,112,7
6201,2,21,right,male,11,,57,BadSelf.bmp,D.bmp,Badself,bad,self,Yes,m,,,,m,1,434,160,10
6201,2,21,right,male,11,,58,GoodSelf.bmp,C.bmp,Goodself,good,self,Yes,m,,,,m,1,406,176,11
6201,2,21,right,male,11,,59,GoodOther.bmp,P.bmp,Goodother,good,other,Yes,m,,,,m,1,490,128,8
6201,2,21,right,male,11,,60,BadOther.bmp,C.bmp,Goodself,bad,other,No,k,,,,k,1,838,16,1
6201,2,21,right,male,11,,61,NormalSelf.bmp,Tra.bmp,Normalself,normal,self,Yes,m,,,,m,1,618,192,12
6201,2,21,right,male,11,,62,BadSelf.bmp,D.bmp,Badself,bad,self,Yes,m,,,,,0,0,160,10
6201,2,21,right,male,11,,63,NormalSelf.bmp,C.bmp,Goodself,normal,self,No,k,,,,k,1,1074,96,6
6201,2,21,right,male,11,,64,NormalOther.bmp,S.bmp,Normalother,normal,other,Yes,m,,,,m,1,470,128,8
6201,2,21,right,male,11,,65,NormalSelf.bmp,S.bmp,Normalother,normal,self,No,k,,,,,0,0,96,6
6201,2,21,right,male,11,,66,BadSelf.bmp,D.bmp,Badself,bad,self,Yes,m,,,,m,1,610,160,10
6201,2,21,right,male,11,,67,GoodSelf.bmp,C.bmp,Goodself,good,self,Yes,m,,,,m,1,406,176,11
6201,2,21,right,male,11,,68,GoodOther.bmp,P.bmp,Goodother,good,other,Yes,m,,,,k,0,874,128,8
6201,2,21,right,male,11,,69,GoodSelf.bmp,C.bmp,Goodself,good,self,Yes,m,,,,m,1,598,176,11
6201,2,21,right,male,11,,70,BadSelf.bmp,D.bmp,Badself,bad,self,Yes,m,,,,,0,0,160,10
6201,2,21,right,male,11,,71,NormalOther.bmp,D.bmp,Badself,normal,other,No,k,,,,k,1,526,48,3
6201,2,21,right,male,11,,72,NormalOther.bmp,S.bmp,Normalother,normal,other,Yes,m,,,,,0,0,128,8
6201,2,21,right,male,11,,73,NormalOther.bmp,C.bmp,Goodself,normal,other,No,k,,,,k,1,510,48,3
6201,2,21,right,male,11,,74,NormalOther.bmp,Tra.bmp,Normalself,normal,other,No,k,,,,,0,0,48,3
6201,2,21,right,male,11,,75,BadSelf.bmp,D.bmp,Badself,bad,self,Yes,m,,,,m,1,548,160,10
6201,2,21,right,male,11,,76,GoodSelf.bmp,Tra.bmp,Normalself,good,self,No,k,,,,k,1,445,80,5
6201,2,21,right,male,11,,77,BadSelf.bmp,T.bmp,Badother,bad,self,No,k,,,,,0,0,64,4
6201,2,21,right,male,11,,78,GoodSelf.bmp,C.bmp,Goodself,good,self,Yes,m,,,,,0,0,176,11
6201,2,21,right,male,11,,79,GoodSelf.bmp,C.bmp,Goodself,good,self,Yes,m,,,,,0,0,176,11
6201,2,21,right,male,11,,80,BadOther.bmp,P.bmp,Goodother,bad,other,No,k,,,,k,1,1068,16,1
6201,2,21,right,male,11,,81,GoodOther.bmp,P.bmp,Goodother,good,other,Yes,m,,,,,0,0,128,8
6201,2,21,right,male,11,,82,GoodOther.bmp,T.bmp,Badother,good,other,No,k,,,,k,1,684,32,2
6201,2,21,right,male,11,,83,BadOther.bmp,T.bmp,Badother,bad,other,Yes,m,,,,m,1,480,112,7
6201,2,21,right,male,11,,84,NormalOther.bmp,S.bmp,Normalother,normal,other,Yes,m,,,,m,1,780,128,8
6201,2,21,right,male,11,,85,BadSelf.bmp,D.bmp,Badself,bad,self,Yes,m,,,,,0,0,160,10
6201,2,21,right,male,11,,86,NormalOther.bmp,S.bmp,Normalother,normal,other,Yes,m,,,,,0,0,128,8
6201,2,21,right,male,11,,87,NormalOther.bmp,S.bmp,Normalother,normal,other,Yes,m,,,,m,1,459,128,8
6201,2,21,right,male,11,,88,GoodSelf.bmp,C.bmp,Goodself,good,self,Yes,m,,,,m,1,367,176,11
6201,2,21,right,male,11,,89,NormalOther.bmp,P.bmp,Goodother,normal,other,No,k,,,,,0,0,48,3
6201,2,21,right,male,11,,90,GoodOther.bmp,C.bmp,Goodself,good,other,No,k,,,,k,1,598,32,2
6201,2,21,right,male,12,,1,NormalSelf.bmp,Tra.bmp,Normalself,normal,self,Yes,m,,,,,0,0,192,12
6201,2,21,right,male,12,,2,NormalOther.bmp,D.bmp,Badself,normal,other,No,k,,,,k,1,1093,48,3
6201,2,21,right,male,12,,3,BadSelf.bmp,D.bmp,Badself,bad,self,Yes,m,,,,m,1,801,160,10
6201,2,21,right,male,12,,4,BadOther.bmp,T.bmp,Badother,bad,other,Yes,m,,,,m,1,893,112,7
6201,2,21,right,male,12,,5,NormalSelf.bmp,Tra.bmp,Normalself,normal,self,Yes,m,,,,m,1,760,192,12
6201,2,21,right,male,12,,6,GoodOther.bmp,S.bmp,Normalother,good,other,No,k,,,,,0,0,32,2
6201,2,21,right,male,12,,7,NormalSelf.bmp,Tra.bmp,Normalself,normal,self,Yes,m,,,,m,1,910,192,12
6201,2,21,right,male,12,,8,BadSelf.bmp,D.bmp,Badself,bad,self,Yes,m,,,,m,1,418,160,10
6201,2,21,right,male,12,,9,GoodOther.bmp,P.bmp,Goodother,good,other,Yes,m,,,,m,1,498,128,8
6201,2,21,right,male,12,,10,GoodSelf.bmp,C.bmp,Goodself,good,self,Yes,m,,,,m,1,919,176,11
6201,2,21,right,male,12,,11,GoodOther.bmp,D.bmp,Badself,good,other,No,k,,,,k,1,875,32,2
6201,2,21,right,male,12,,12,BadOther.bmp,P.bmp,Goodother,bad,other,No,k,,,,k,1,791,16,1
6201,2,21,right,male,12,,13,GoodSelf.bmp,C.bmp,Goodself,good,self,Yes,m,,,,m,1,947,176,11
6201,2,21,right,male,12,,14,NormalOther.bmp,S.bmp,Normalother,normal,other,Yes,m,,,,k,0,791,128,8
6201,2,21,right,male,12,,15,BadOther.bmp,T.bmp,Badother,bad,other,Yes,m,,,,m,1,987,112,7
6201,2,21,right,male,12,,16,BadOther.bmp,T.bmp,Badother,bad,other,Yes,m,,,,m,1,399,112,7
6201,2,21,right,male,12,,17,BadSelf.bmp,P.bmp,Goodother,bad,self,No,k,,,,k,1,915,64,4
6201,2,21,right,male,12,,18,GoodSelf.bmp,S.bmp,Normalother,good,self,No,k,,,,k,1,606,80,5
6201,2,21,right,male,12,,19,BadSelf.bmp,D.bmp,Badself,bad,self,Yes,m,,,,m,1,442,160,10
6201,2,21,right,male,12,,20,GoodSelf.bmp,C.bmp,Goodself,good,self,Yes,m,,,,m,1,547,176,11
6201,2,21,right,male,12,,21,GoodSelf.bmp,Tra.bmp,Normalself,good,self,No,k,,,,k,1,911,80,5
6201,2,21,right,male,12,,22,BadOther.bmp,D.bmp,Badself,bad,other,No,k,,,,m,0,795,16,1
6201,2,21,right,male,12,,23,GoodSelf.bmp,C.bmp,Goodself,good,self,Yes,m,,,,,0,0,176,11
6201,2,21,right,male,12,,24,BadSelf.bmp,D.bmp,Badself,bad,self,Yes,m,,,,m,1,387,160,10
6201,2,21,right,male,12,,25,GoodOther.bmp,P.bmp,Goodother,good,other,Yes,m,,,,m,1,983,128,8
6201,2,21,right,male,12,,26,GoodOther.bmp,P.bmp,Goodother,good,other,Yes,m,,,,m,1,403,128,8
6201,2,21,right,male,12,,27,BadSelf.bmp,D.bmp,Badself,bad,self,Yes,m,,,,,0,0,160,10
6201,2,21,right,male,12,,28,NormalOther.bmp,S.bmp,Normalother,normal,other,Yes,m,,,,m,1,355,128,8
6201,2,21,right,male,12,,29,BadSelf.bmp,D.bmp,Badself,bad,self,Yes,m,,,,,0,0,160,10
6201,2,21,right,male,12,,30,NormalOther.bmp,T.bmp,Badother,normal,other,No,k,,,,k,1,536,48,3
6201,2,21,right,male,12,,31,BadOther.bmp,T.bmp,Badother,bad,other,Yes,m,,,,m,1,569,112,7
6201,2,21,right,male,12,,32,BadOther.bmp,C.bmp,Goodself,bad,other,No,k,,,,m,0,941,16,1
6201,2,21,right,male,12,,33,GoodOther.bmp,P.bmp,Goodother,good,other,Yes,m,,,,,0,0,128,8
6201,2,21,right,male,12,,34,GoodOther.bmp,P.bmp,Goodother,good,other,Yes,m,,,,m,1,365,128,8
6201,2,21,right,male,12,,35,NormalOther.bmp,S.bmp,Normalother,normal,other,Yes,m,,,,m,1,505,128,8
6201,2,21,right,male,12,,36,GoodSelf.bmp,C.bmp,Goodself,good,self,Yes,m,,,,m,1,461,176,11
6201,2,21,right,male,12,,37,NormalSelf.bmp,D.bmp,Badself,normal,self,No,k,,,,k,1,865,96,6
6201,2,21,right,male,12,,38,GoodSelf.bmp,P.bmp,Goodother,good,self,No,k,,,,k,1,853,80,5
6201,2,21,right,male,12,,39,NormalSelf.bmp,Tra.bmp,Normalself,normal,self,Yes,m,,,,m,1,561,192,12
6201,2,21,right,male,12,,40,NormalSelf.bmp,Tra.bmp,Normalself,normal,self,Yes,m,,,,,0,0,192,12
6201,2,21,right,male,12,,41,GoodOther.bmp,Tra.bmp,Normalself,good,other,No,k,,,,k,1,1001,32,2
6201,2,21,right,male,12,,42,BadOther.bmp,T.bmp,Badother,bad,other,Yes,m,,,,m,1,833,112,7
6201,2,21,right,male,12,,43,NormalSelf.bmp,Tra.bmp,Normalself,normal,self,Yes,m,,,,m,1,501,192,12
6201,2,21,right,male,12,,44,NormalSelf.bmp,Tra.bmp,Normalself,normal,self,Yes,m,,,,,0,0,192,12
6201,2,21,right,male,12,,45,BadOther.bmp,T.bmp,Badother,bad,other,Yes,m,,,,m,1,589,112,7
6201,2,21,right,male,12,,46,NormalOther.bmp,Tra.bmp,Normalself,normal,other,No,k,,,,k,1,729,48,3
6201,2,21,right,male,12,,47,GoodOther.bmp,P.bmp,Goodother,good,other,Yes,m,,,,m,1,1053,128,8
6201,2,21,right,male,12,,48,NormalOther.bmp,S.bmp,Normalother,normal,other,Yes,m,,,,,0,0,128,8
6201,2,21,right,male,12,,49,BadOther.bmp,Tra.bmp,Normalself,bad,other,No,k,,,,k,1,973,16,1
6201,2,21,right,male,12,,50,NormalSelf.bmp,Tra.bmp,Normalself,normal,self,Yes,m,,,,,0,0,192,12
6201,2,21,right,male,12,,51,GoodOther.bmp,P.bmp,Goodother,good,other,Yes,m,,,,,0,0,128,8
6201,2,21,right,male,12,,52,NormalOther.bmp,S.bmp,Normalother,normal,other,Yes,m,,,,k,0,847,128,8
6201,2,21,right,male,12,,53,NormalOther.bmp,S.bmp,Normalother,normal,other,Yes,m,,,,m,1,336,128,8
6201,2,21,right,male,12,,54,GoodSelf.bmp,C.bmp,Goodself,good,self,Yes,m,,,,,0,0,176,11
6201,2,21,right,male,12,,55,BadSelf.bmp,D.bmp,Badself,bad,self,Yes,m,,,,m,1,295,160,10
6201,2,21,right,male,12,,56,GoodSelf.bmp,C.bmp,Goodself,good,self,Yes,m,,,,m,1,379,176,11
