Subject,Session,Age,Handedness,Sex,BlockList.Sample,PracList.Sample,SubTrial,Label,Target,Shape,morality,identity,YesNoResp,CorrectAnswer,Targetprac.RESP,Targetprac.ACC,Targetprac.RT,Target.RESP,Target.ACC,Target.RT
6201,1,21,right,male,,1,1,GoodOther.bmp,P.bmp,Goodother,moral,other,Yes,m,,0,0,,,
6201,1,21,right,male,,1,2,BadSelf.bmp,D.bmp,Badself,immoral,self,Yes,m,m,1,565,,,
6201,1,21,right,male,,1,3,BadOther.bmp,C.bmp,Goodself,immoral,other,No,k,,0,0,,,
6201,1,21,right,male,,1,4,BadSelf.bmp,D.bmp,Badself,immoral,self,Yes,m,m,1,1030,,,
6201,1,21,right,male,,1,5,BadSelf.bmp,S.bmp,Normalother,immoral,self,No,k,k,1,562,,,
6201,1,21,right,male,,1,6,GoodOther.bmp,Tra.bmp,Normalself,moral,other,No,k,k,1,751,,,
6201,1,21,right,male,,1,7,NormalSelf.bmp,Tra.bmp,Normalself,normal,self,Yes,m,m,1,1071,,,
6201,1,21,right,male,,1,8,NormalSelf.bmp,Tra.bmp,Normalself,normal,self,Yes,m,m,1,349,,,
6201,1,21,right,male,,1,9,NormalOther.bmp,D.bmp,Badself,normal,other,No,k,m,0,985,,,
6201,1,21,right,male,,1,10,BadSelf.bmp,C.bmp,Goodself,immoral,self,No,k,k,1,699,,,
6201,1,21,right,male,,1,11,GoodSelf.bmp,C.bmp,Goodself,moral,self,Yes,m,,0,0,,,
6201,1,21,right,male,,1,12,GoodOther.bmp,S.bmp,Normalother,moral,other,No,k,m,0,948,,,
6201,1,21,right,male,,1,13,NormalOther.bmp,C.bmp,Goodself,normal,other,No,k,k,1,672,,,
6201,1,21,right,male,,1,14,BadSelf.bmp,D.bmp,Badself,immoral,self,Yes,m,m,1,421,,,
6201,1,21,right,male,,1,15,GoodOther.bmp,D.bmp,Badself,moral,other,No,k,k,1,753,,,
6201,1,21,right,male,,1,16,NormalSelf.bmp,D.bmp,Badself,normal,self,No,k,,0,0,,,
6201,1,21,right,male,,1,17,NormalOther.bmp,P.bmp,Goodother,normal,other,No,k,m,0,802,,,
6201,1,21,right,male,,1,18,GoodSelf.bmp,C.bmp,Goodself,moral,self,Yes,m,,0,0,,,
6201,1,21,right,male,,1,19,GoodSelf.bmp,S.bmp,Normalother,moral,self,No,k,k,1,433,,,
6201,1,21,right,male,,1,20,GoodSelf.bmp,D.bmp,Badself,moral,self,No,k,k,1,590,,,
6201,1,21,right,male,,1,21,GoodSelf.bmp,T.bmp,Badother,moral,self,No,k,k,1,562,,,
6201,1,21,right,male,,1,22,GoodOther.bmp,C.bmp,Goodself,moral,other,No,k,k,1,790,,,
6201,1,21,right,male,,1,23,BadOther.bmp,T.bmp,Badother,immoral,other,Yes,m,k,0,801,,,
6201,1,21,right,male,,1,24,GoodSelf.bmp,P.bmp,Goodother,moral,self,No,k,,0,0,,,
6201,1,21,right,male,,1,25,NormalOther.bmp,T.bmp,Badother,normal,other,No,k,k,1,714,,,
6201,1,21,right,male,,1,26,GoodSelf.bmp,C.bmp,Goodself,moral,self,Yes,m,k,0,878,,,
6201,1,21,right,male,,1,27,BadOther.bmp,T.bmp,Badother,immoral,other,Yes,m,,0,0,,,
6201,1,21,right,male,,1,28,NormalOther.bmp,S.bmp,Normalother,normal,other,Yes,m,m,1,854,,,
6201,1,21,right,male,,1,29,NormalSelf.bmp,Tra.bmp,Normalself,normal,self,Yes,m,m,1,562,,,
6201,1,21,right,male,,1,30,NormalSelf.bmp,P.bmp,Goodother,normal,self,No,k,k,1,390,,,
6201,1,21,right,male,,1,31,BadSelf.bmp,Tra.bmp,Normalself,immoral,self,No,k,m,0,931,,,
6201,1,21,right,male,,1,32,BadOther.bmp,T.bmp,Badother,immoral,other,Yes,m,k,0,903,,,
6201,1,21,right,male,,1,33,BadOther.bmp,S.bmp,Normalother,immoral,other,No,k,,0,0,,,
6201,1,21,right,male,,1,34,NormalSelf.bmp,Tra.bmp,Normalself,normal,self,Yes,m,m,1,600,,,
6201,1,21,right,male,,1,35,NormalSelf.bmp,Tra.bmp,Normalself,normal,self,Yes,m,m,1,596,,,
6201,1,21,right,male,,1,36,NormalSelf.bmp,S.bmp,Normalother,normal,self,No,k,k,1,377,,,
6201,1,21,right,male,,1,37,GoodOther.bmp,P.bmp,Goodother,moral,other,Yes,m,m,1,1020,,,
6201,1,21,right,male,,1,38,BadSelf.bmp,P.bmp,Goodother,immoral,self,No,k,k,1,1072,,,
6201,1,21,right,male,,1,39,GoodSelf.bmp,C.bmp,Goodself,moral,self,Yes,m,m,1,1013,,,
6201,1,21,right,male,,1,40,BadOther.bmp,T.bmp,Badother,immoral,other,Yes,m,k,0,841,,,
6201,1,21,right,male,,1,41,BadSelf.bmp,D.bmp,Badself,immoral,self,Yes,m,,0,0,,,
6201,1,21,right,male,,1,42,GoodSelf.bmp,C.bmp,Goodself,moral,self,Yes,m,m,1,642,,,
6201,1,21,right,male,,1,43,GoodOther.bmp,P.bmp,Goodother,moral,other,Yes,m,m,1,694,,,
6201,1,21,right,male,,1,44,BadOther.bmp,D.bmp,Badself,immoral,other,No,k,m,0,859,,,
6201,1,21,right,male,,1,45,NormalOther.bmp,S.bmp,Normalother,normal,other,Yes,m,,0,0,,,
6201,1,21,right,male,,1,46,NormalOther.bmp,S.bmp,Normalother,normal,other,Yes,m,,0,0,,,
6201,1,21,right,male,,1,47,BadSelf.bmp,D.bmp,Badself,immoral,self,Yes,m,k,0,1071,,,
6201,1,21,right,male,,1,48,GoodOther.bmp,T.bmp,Badother,moral,other,No,k,m,0,539,,,
6201,1,21,right,male,,1,49,GoodSelf.bmp,Tra.bmp,Normalself,moral,self,No,k,,0,0,,,
6201,1,21,right,male,,1,50,NormalSelf.bmp,C.bmp,Goodself,normal,self,No,k,,0,0,,,
6201,1,21,right,male,,1,51,BadOther.bmp,Tra.bmp,Normalself,immoral,other,No,k,k,1,816,,,
6201,1,21,right,male,,1,52,NormalOther.bmp,S.bmp,Normalother,normal,other,Yes,m,m,1,284,,,
6201,1,21,right,male,,1,53,GoodOther.bmp,P.bmp,Goodother,moral,other,Yes,m,m,1,1009,,,
6201,1,21,right,male,,1,54,NormalOther.bmp,Tra.bmp,Normalself,normal,other,No,k,,0,0,,,
6201,1,21,right,male,,1,55,BadOther.bmp,P.bmp,Goodother,immoral,other,No,k,k,1,562,,,
6201,1,21,right,male,,1,56,NormalSelf.bmp,T.bmp,Badother,normal,self,No,k,m,0,285,,,
6201,1,21,right,male,,1,57,NormalOther.bmp,S.bmp,Normalother,normal,other,Yes,m,k,0,1033,,,
6201,1,21,right,male,,1,58,GoodOther.bmp,P.bmp,Goodother,moral,other,Yes,m,m,1,566,,,
6201,1,21,right,male,,1,59,BadOther.bmp,T.bmp,Badother,immoral,other,Yes,m,k,0,850,,,
6201,1,21,right,male,,1,60,BadSelf.bmp,T.bmp,Badother,immoral,self,No,k,k,1,830,,,
6201,1,21,right,male,,1,61,GoodSelf.bmp,C.bmp,Goodself,moral,self,Yes,m,m,1,716,,,
6201,1,21,right,male,,1,62,NormalOther.bmp,S.bmp,Normalother,normal,other,Yes,m,m,1,968,,,
6201,1,21,right,male,,1,63,GoodSelf.bmp,D.bmp,Badself,moral,self,No,k,m,0,476,,,
6201,1,21,right,male,,1,64,GoodSelf.bmp,Tra.bmp,Normalself,moral,self,No,k,k,1,712,,,
6201,1,21,right,male,,1,65,GoodOther.bmp,S.bmp,Normalother,moral,other,No,k,m,0,773,,,
6201,1,21,right,male,,1,66,BadSelf.bmp,D.bmp,Badself,immoral,self,Yes,m,k,0,913,,,
6201,1,21,right,male,,1,67,NormalSelf.bmp,D.bmp,Badself,normal,self,No,k,,0,0,,,
6201,1,21,right,male,,1,68,BadOther.bmp,T.bmp,Badother,immoral,other,Yes,m,m,1,1010,,,
6201,1,21,right,male,,1,69,GoodSelf.bmp,C.bmp,Goodself,moral,self,Yes,m,,0,0,,,
6201,1,21,right,male,,1,70,GoodOther.bmp,P.bmp,Goodother,moral,other,Yes,m,m,1,913,,,
6201,1,21,right,male,,1,71,NormalOther.bmp,S.bmp,Normalother,normal,other,Yes,m,m,1,652,,,
6201,1,21,right,male,,1,72,NormalSelf.bmp,Tra.bmp,Normalself,normal,self,Yes,m,m,1,608,,,
6201,1,21,right,male,,1,73,GoodSelf.bmp,C.bmp,Goodself,moral,self,Yes,m,m,1,389,,,
6201,1,21,right,male,,1,74,BadOther.bmp,S.bmp,Normalother,immoral,other,No,k,,0,0,,,
6201,1,21,right,male,,1,75,GoodOther.bmp,C.bmp,Goodself,moral,other,No,k,m,0,309,,,
6201,1,21,right,male,,1,76,BadSelf.bmp,P.bmp,Goodother,immoral,self,No,k,,0,0,,,
6201,1,21,right,male,,1,77,BadSelf.bmp,D.bmp,Badself,immoral,self,Yes,m,m,1,822,,,
6201,1,21,right,male,,1,78,BadOther.bmp,T.bmp,Badother,immoral,other,Yes,m,,0,0,,,
6201,1,21,right,male,,1,79,BadOther.bmp,P.bmp,Goodother,immoral,other,No,k,m,0,783,,,
6201,1,21,right,male,,1,80,BadSelf.bmp,D.bmp,Badself,immoral,self,Yes,m,,0,0,,,
6201,1,21,right,male,,1,81,GoodSelf.bmp,C.bmp,Goodself,moral,self,Yes,m,m,1,455,,,
6201,1,21,right,male,,1,82,NormalSelf.bmp,Tra.bmp,Normalself,normal,self,Yes,m,m,1,907,,,
6201,1,21,right,male,,1,83,NormalSelf.bmp,T.bmp,Badother,normal,self,No,k,k,1,535,,,
6201,1,21,right,male,,1,84,BadOther.bmp,Tra.bmp,Normalself,immoral,other,No,k,,0,0,,,
6201,1,21,right,male,,1,85,BadOther.bmp,T.bmp,Badother,immoral,other,Yes,m,m,1,1070,,,
6201,1,21,right,male,,1,86,NormalSelf.bmp,P.bmp,Goodother,normal,self,No,k,k,1,780,,,
6201,1,21,right,male,,1,87,GoodSelf.bmp,C.bmp,Goodself,moral,self,Yes,m,m,1,417,,,
6201,1,21,right,male,,1,88,BadSelf.bmp,T.bmp,Badother,immoral,self,No,k,m,0,757,,,
6201,1,21,right,male,,1,89,NormalOther.bmp,D.bmp,Badself,normal,other,No,k,m,0,825,,,
6201,1,21,right,male,,1,90,NormalOther.bmp,P.bmp,Goodother,normal,other,No,k,k,1,246,,,
6201,1,21,right,male,,1,91,GoodOther.bmp,T.bmp,Badother,moral,other,No,k,k,1,889,,,
6201,1,21,right,male,,1,92,GoodOther.bmp,D.bmp,Badself,moral,other,No,k,k,1,1006,,,
6201,1,21,right,male,,1,93,BadOther.bmp,C.bmp,Goodself,immoral,other,No,k,m,0,762,,,
6201,1,21,right,male,,1,94,GoodOther.bmp,P.bmp,Goodother,moral,other,Yes,m,k,0,1070,,,
6201,1,21,right,male,,1,95,BadOther.bmp,D.bmp,Badself,immoral,other,No,k,m,0,859,,,
6201,1,21,right,male,,1,96,GoodOther.bmp,Tra.bmp,Normalself,moral,other,No,k,k,1,647,,,
6201,1,21,right,male,,1,97,BadSelf.bmp,Tra.bmp,Normalself,immoral,self,No,k,m,0,1051,,,
6201,1,21,right,male,,1,98,NormalOther.bmp,S.bmp,Normalother,normal,other,Yes,m,,0,0,,,
6201,1,21,right,male,,1,99,NormalOther.bmp,Tra.bmp,Normalself,normal,other,No,k,m,0,684,,,
6201,1,21,right,male,,1,100,GoodSelf.bmp,T.bmp,Badother,moral,self,No,k,k,1,848,,,
6201,1,21,right,male,,1,101,NormalSelf.bmp,Tra.bmp,Normalself,normal,self,Yes,m,m,1,956,,,
6201,1,21,right,male,,1,102,GoodSelf.bmp,S.bmp,Normalother,moral,self,No,k,k,1,936,,,
6201,1,21,right,male,,1,103,NormalOther.bmp,C.bmp,Goodself,normal,other,No,k,k,1,693,,,
6201,1,21,right,male,,1,104,GoodSelf.bmp,P.bmp,Goodother,moral,self,No,k,k,1,617,,,
6201,1,21,right,male,,1,105,NormalSelf.bmp,C.bmp,Goodself,normal,self,No,k,k,1,661,,,
6201,1,21,right,male,,1,106,GoodOther.bmp,P.bmp,Goodother,moral,other,Yes,m,m,1,1010,,,
6201,1,21,right,male,,1,107,BadSelf.bmp,D.bmp,Badself,immoral,self,Yes,m,k,0,854,,,
6201,1,21,right,male,,1,108,BadSelf.bmp,C.bmp,Goodself,immoral,self,No,k,k,1,762,,,
6201,1,21,right,male,,1,109,NormalSelf.bmp,S.bmp,Normalother,normal,self,No,k,m,0,894,,,
6201,1,21,right,male,,1,110,NormalOther.bmp,T.bmp,Badother,normal,other,No,k,,0,0,,,
6201,1,21,right,male,,1,111,NormalOther.bmp,S.bmp,Normalother,normal,other,Yes,m,k,0,999,,,
6201,1,21,right,male,,1,112,BadOther.bmp,T.bmp,Badother,immoral,other,Yes,m,m,1,891,,,
6201,1,21,right,male,,1,113,BadSelf.bmp,D.bmp,Badself,immoral,self,Yes,m,m,1,375,,,
6201,1,21,right,male,,1,114,GoodOther.bmp,P.bmp,Goodother,moral,other,Yes,m,k,0,580,,,
6201,1,21,right,male,,1,115,BadSelf.bmp,S.bmp,Normalother,immoral,self,No,k,m,0,936,,,
6201,1,21,right,male,,1,116,BadOther.bmp,T.bmp,Badother,immoral,other,Yes,m,k,0,796,,,
6201,1,21,right,male,,1,117,GoodOther.bmp,P.bmp,Goodother,moral,other,Yes,m,m,1,513,,,
6201,1,21,right,male,,1,118,NormalSelf.bmp,Tra.bmp,Normalself,normal,self,Yes,m,m,1,996,,,
6201,1,21,right,male,,1,119,NormalSelf.bmp,Tra.bmp,Normalself,normal,self,Yes,m,m,1,544,,,
6201,1,21,right,male,,1,120,NormalOther.bmp,S.bmp,Normalother,normal,other,Yes,m,m,1,917,,,
6201,1,21,right,male,,1,121,NormalOther.bmp,P.bmp,Goodother,normal,other,No,k,,0,0,,,
6201,1,21,right,male,,1,122,GoodOther.bmp,Tra.bmp,Normalself,moral,other,No,k,m,0,1070,,,
6201,1,21,right,male,,1,123,NormalSelf.bmp,C.bmp,Goodself,normal,self,No,k,k,1,827,,,
6201,1,21,right,male,,1,124,GoodSelf.bmp,C.bmp,Goodself,moral,self,Yes,m,m,1,599,,,
6201,1,21,right,male,,1,125,GoodOther.bmp,P.bmp,Goodother,moral,other,Yes,m,m,1,524,,,
6201,1,21,right,male,,1,126,NormalOther.bmp,S.bmp,Normalother,normal,other,Yes,m,m,1,1000,,,
6201,1,21,right,male,,1,127,BadOther.bmp,P.bmp,Goodother,immoral,other,No,k,k,1,876,,,
6201,1,21,right,male,,1,128,NormalOther.bmp,D.bmp,Badself,normal,other,No,k,k,1,921,,,
6201,1,21,right,male,,1,129,NormalOther.bmp,C.bmp,Goodself,normal,other,No,k,k,1,733,,,
6201,1,21,right,male,,1,130,BadOther.bmp,Tra.bmp,Normalself,immoral,other,No,k,k,1,906,,,
6201,1,21,right,male,,1,131,GoodOther.bmp,P.bmp,Goodother,moral,other,Yes,m,k,0,781,,,
6201,1,21,right,male,,1,132,GoodSelf.bmp,C.bmp,Goodself,moral,self,Yes,m,m,1,401,,,
6201,1,21,right,male,,1,133,NormalOther.bmp,S.bmp,Normalother,normal,other,Yes,m,,0,0,,,
6201,1,21,right,male,,1,134,GoodOther.bmp,P.bmp,Goodother,moral,other,Yes,m,m,1,786,,,
6201,1,21,right,male,,1,135,BadOther.bmp,T.bmp,Badother,immoral,other,Yes,m,k,0,878,,,
6201,1,21,right,male,,1,136,GoodOther.bmp,C.bmp,Goodself,moral,other,No,k,m,0,947,,,
6201,1,21,right,male,,1,137,BadSelf.bmp,T.bmp,Badother,immoral,self,No,k,,0,0,,,
6201,1,21,right,male,,1,138,GoodSelf.bmp,C.bmp,Goodself,moral,self,Yes,m,m,1,515,,,
6201,1,21,right,male,,1,139,BadSelf.bmp,C.bmp,Goodself,immoral,self,No,k,k,1,768,,,
6201,1,21,right,male,,1,140,GoodSelf.bmp,Tra.bmp,Normalself,moral,self,No,k,,0,0,,,
6201,1,21,right,male,,1,141,NormalSelf.bmp,Tra.bmp,Normalself,normal,self,Yes,m,m,1,616,,,
6201,1,21,right,male,,1,142,NormalSelf.bmp,D.bmp,Badself,normal,self,No,k,k,1,436,,,
6201,1,21,right,male,,1,143,GoodSelf.bmp,D.bmp,Badself,moral,self,No,k,k,1,592,,,
6201,1,21,right,male,,1,144,BadSelf.bmp,D.bmp,Badself,immoral,self,Yes,m,k,0,845,,,
6201,1,21,right,male,,1,145,GoodSelf.bmp,T.bmp,Badother,moral,self,No,k,k,1,617,,,
6201,1,21,right,male,,1,146,GoodOther.bmp,S.bmp,Normalother,moral,other,No,k,k,1,941,,,
6201,1,21,right,male,,1,147,GoodOther.bmp,P.bmp,Goodother,moral,other,Yes,m,m,1,698,,,
6201,1,21,right,male,,1,148,GoodSelf.bmp,C.bmp,Goodself,moral,self,Yes,m,m,1,494,,,
6201,1,21,right,male,,1,149,NormalOther.bmp,S.bmp,Normalother,normal,other,Yes,m,m,1,890,,,
6201,1,21,right,male,,1,150,NormalSelf.bmp,T.bmp,Badother,normal,self,No,k,k,1,846,,,
6201,1,21,right,male,,1,151,BadSelf.bmp,P.bmp,Goodother,immoral,self,No,k,k,1,1002,,,
6201,1,21,right,male,,1,152,NormalSelf.bmp,Tra.bmp,Normalself,normal,self,Yes,m,m,1,607,,,
6201,1,21,right,male,,1,153,BadSelf.bmp,D.bmp,Badself,immoral,self,Yes,m,m,1,971,,,
6201,1,21,right,male,,1,154,BadSelf.bmp,D.bmp,Badself,immoral,self,Yes,m,k,0,895,,,
6201,1,21,right,male,,1,155,NormalOther.bmp,S.bmp,Normalother,normal,other,Yes,m,m,1,708,,,
6201,1,21,right,male,,1,156,BadOther.bmp,S.bmp,Normalother,immoral,other,No,k,k,1,888,,,
6201,1,21,right,male,,1,157,GoodSelf.bmp,P.bmp,Goodother,moral,self,No,k,k,1,756,,,
6201,1,21,right,male,,1,158,NormalOther.bmp,S.bmp,Normalother,normal,other,Yes,m,,0,0,,,
6201,1,21,right,male,,1,159,BadSelf.bmp,D.bmp,Badself,immoral,self,Yes,m,m,1,860,,,
6201,1,21,right,male,,1,160,BadOther.bmp,T.bmp,Badother,immoral,other,Yes,m,m,1,728,,,
6201,1,21,right,male,,1,161,BadSelf.bmp,Tra.bmp,Normalself,immoral,self,No,k,k,1,1071,,,
6201,1,21,right,male,,1,162,GoodSelf.bmp,C.bmp,Goodself,moral,self,Yes,m,m,1,521,,,
6201,1,21,right,male,,1,163,GoodOther.bmp,P.bmp,Goodother,moral,other,Yes,m,m,1,398,,,
6201,1,21,right,male,,1,164,NormalSelf.bmp,P.bmp,Goodother,normal,self,No,k,k,1,834,,,
6201,1,21,right,male,,1,165,GoodOther.bmp,D.bmp,Badself,moral,other,No,k,k,1,1046,,,
6201,1,21,right,male,,1,166,NormalSelf.bmp,Tra.bmp,Normalself,normal,self,Yes,m,m,1,883,,,
6201,1,21,right,male,,1,167,BadSelf.bmp,D.bmp,Badself,immoral,self,Yes,m,m,1,895,,,
6201,1,21,right,male,,1,168,GoodOther.bmp,T.bmp,Badother,moral,other,No,k,k,1,819,,,
6201,1,21,right,male,,1,169,BadOther.bmp,T.bmp,Badother,immoral,other,Yes,m,m,1,999,,,
6201,1,21,right,male,,1,170,NormalSelf.bmp,Tra.bmp,Normalself,normal,self,Yes,m,m,1,675,,,
6201,1,21,right,male,,1,171,NormalOther.bmp,T.bmp,Badother,normal,other,No,k,k,1,808,,,
6201,1,21,right,male,,1,172,BadOther.bmp,T.bmp,Badother,immoral,other,Yes,m,,0,0,,,
6201,1,21,right,male,,1,173,BadOther.bmp,T.bmp,Badother,immoral,other,Yes,m,m,1,710,,,
6201,1,21,right,male,,1,174,BadSelf.bmp,S.bmp,Normalother,immoral,self,No,k,k,1,627,,,
6201,1,21,right,male,,1,175,NormalOther.bmp,Tra.bmp,Normalself,normal,other,No,k,k,1,1039,,,
6201,1,21,right,male,,1,176,NormalSelf.bmp,S.bmp,Normalother,normal,self,No,k,k,1,715,,,
6201,1,21,right,male,,1,177,BadOther.bmp,D.bmp,Badself,immoral,other,No,k,k,1,840,,,
6201,1,21,right,male,,1,178,NormalSelf.bmp,Tra.bmp,Normalself,normal,self,Yes,m,m,1,627,,,
6201,1,21,right,male,,1,179,BadOther.bmp,C.bmp,Goodself,immoral,other,No,k,k,1,709,,,
6201,1,21,right,male,,1,180,GoodSelf.bmp,S.bmp,Normalother,moral,self,No,k,k,1,506,,,
6201,1,21,right,male,1,,1,BadSelf.bmp,D.bmp,Badself,bad,self,Yes,m,,,,,0,0
6201,1,21,right,male,1,,2,BadSelf.bmp,S.bmp,Normalother,bad,self,No,k,,,,,0,0
6201,1,21,right,male,1,,3,BadOther.bmp,Tra.bmp,Normalself,bad,other,No,k,,,,m,0,960
6201,1,21,right,male,1,,4,NormalSelf.bmp,T.bmp,Badother,normal,self,No,k,,,,,0,0
6201,1,21,right,male,1,,5,GoodOther.bmp,Tra.bmp,Normalself,good,other,No,k,,,,,0,0
6201,1,21,right,male,1,,6,NormalSelf.bmp,Tra.bmp,Normalself,normal,self,Yes,m,,,,,0,0
6201,1,21,right,male,1,,7,GoodOther.bmp,P.bmp,Goodother,good,other,Yes,m,,,,,0,0
6201,1,21,right,male,1,,8,NormalOther.bmp,D.bmp,Badself,normal,other,No,k,,,,,0,0
6201,1,21,right,male,1,,9,BadOther.bmp,T.bmp,Badother,bad,other,Yes,m,,,,,0,0
6201,1,21,right,male,1,,10,BadSelf.bmp,Tra.bmp,Normalself,bad,self,No,k,,,,,0,0
6201,1,21,right,male,1,,11,BadOther.bmp,T.bmp,Badother,bad,other,Yes,m,,,,,0,0
6201,1,21,right,male,1,,12,GoodOther.bmp,T.bmp,Badother,good,other,No,k,,,,,0,0
6201,1,21,right,male,1,,13,BadOther.bmp,T.bmp,Badother,bad,other,Yes,m,,,,m,1,19
6201,1,21,right,male,1,,14,BadSelf.bmp,T.bmp,Badother,bad,self,No,k,,,,,0,0
6201,1,21,right,male,1,,15,GoodSelf.bmp,P.bmp,Goodother,good,self,No,k,,,,,0,0
6201,1,21,right,male,1,,16,NormalSelf.bmp,D.bmp,Badself,normal,self,No,k,,,,,0,0
6201,1,21,right,male,1,,17,GoodOther.bmp,P.bmp,Goodother,good,other,Yes,m,,,,,0,0
6201,1,21,right,male,1,,18,GoodSelf.bmp,D.bmp,Badself,good,self,No,k,,,,,0,0
6201,1,21,right,male,1,,19,NormalOther.bmp,S.bmp,Normalother,normal,other,Yes,m,,,,,0,0
6201,1,21,right,male,1,,20,GoodSelf.bmp,C.bmp,Goodself,good,self,Yes,m,,,,,0,0
6201,1,21,right,male,1,,21,NormalOther.bmp,S.bmp,Normalother,normal,other,Yes,m,,,,k,0,588
6201,1,21,right,male,1,,22,GoodSelf.bmp,Tra.bmp,Normalself,good,self,No,k,,,,k,1,600
6201,1,21,right,male,1,,23,GoodSelf.bmp,C.bmp,Goodself,good,self,Yes,m,,,,m,1,516
6201,1,21,right,male,1,,24,NormalSelf.bmp,Tra.bmp,Normalself,normal,self,Yes,m,,,,m,1,656
6201,1,21,right,male,1,,25,NormalOther.bmp,S.bmp,Normalother,normal,other,Yes,m,,,,m,1,908
6201,1,21,right,male,1,,26,NormalSelf.bmp,Tra.bmp,Normalself,normal,self,Yes,m,,,,k,0,609
6201,1,21,right,male,1,,27,BadOther.bmp,T.bmp,Badother,bad,other,Yes,m,,,,m,1,773
6201,1,21,right,male,1,,28,BadSelf.bmp,D.bmp,Badself,bad,self,Yes,m,,,,k,0,401
6201,1,21,right,male,1,,29,GoodOther.bmp,P.bmp,Goodother,good,other,Yes,m,,,,,0,0
6201,1,21,right,male,1,,30,GoodOther.bmp,D.bmp,Badself,good,other,No,k,,,,,0,0
6201,1,21,right,male,1,,31,BadOther.bmp,C.bmp,Goodself,bad,other,No,k,,,,,0,0
6201,1,21,right,male,1,,32,GoodSelf.bmp,S.bmp,Normalother,good,self,No,k,,,,,0,0
6201,1,21,right,male,1,,33,NormalOther.bmp,Tra.bmp,Normalself,normal,other,No,k,,,,,0,0
6201,1,21,right,male,1,,34,NormalSelf.bmp,Tra.bmp,Normalself,normal,self,Yes,m,,,,,0,0
6201,1,21,right,male,1,,35,BadOther.bmp,T.bmp,Badother,bad,other,Yes,m,,,,,0,0
6201,1,21,right,male,1,,36,BadSelf.bmp,C.bmp,Goodself,bad,self,No,k,,,,,0,0
6201,1,21,right,male,1,,37,BadOther.bmp,D.bmp,Badself,bad,other,No,k,,,,,0,0
6201,1,21,right,male,1,,38,NormalSelf.bmp,Tra.bmp,Normalself,normal,self,Yes,m,,,,,0,0
6201,1,21,right,male,1,,39,GoodSelf.bmp,C.bmp,Goodself,good,self,Yes,m,,,,m,1,495
6201,1,21,right,male,1,,40,NormalOther.bmp,T.bmp,Badother,normal,other,No,k,,,,m,0,1019
6201,1,21,right,male,1,,41,BadOther.bmp,P.bmp,Goodother,bad,other,No,k,,,,k,1,735
6201,1,21,right,male,1,,42,NormalOther.bmp,S.bmp,Normalother,normal,other,Yes,m,,,,k,0,771
6201,1,21,right,male,1,,43,GoodOther.bmp,S.bmp,Normalother,good,other,No,k,,,,k,1,823
6201,1,21,right,male,1,,44,NormalOther.bmp,P.bmp,Goodother,normal,other,No,k,,,,m,0,579
6201,1,21,right,male,1,,45,NormalSelf.bmp,C.bmp,Goodself,normal,self,No,k,,,,k,1,735
6201,1,21,right,male,1,,46,BadSelf.bmp,D.bmp,Badself,bad,self,Yes,m,,,,m,1,971
6201,1,21,right,male,1,,47,NormalOther.bmp,C.bmp,Goodself,normal,other,No,k,,,,k,1,751
6201,1,21,right,male,1,,48,BadSelf.bmp,P.bmp,Goodother,bad,self,No,k,,,,k,1,772
6201,1,21,right,male,1,,49,NormalOther.bmp,S.bmp,Normalother,normal,other,Yes,m,,,,k,0,528
6201,1,21,right,male,1,,50,BadSelf.bmp,D.bmp,Badself,bad,self,Yes,m,,,,m,1,740
6201,1,21,right,male,1,,51,GoodSelf.bmp,C.bmp,Goodself,good,self,Yes,m,,,,m,1,344
6201,1,21,right,male,1,,52,BadOther.bmp,S.bmp,Normalother,bad,other,No,k,,,,k,1,1066
6201,1,21,right,male,1,,53,BadSelf.bmp,D.bmp,Badself,bad,self,Yes,m,,,,m,1,729
6201,1,21,right,male,1,,54,GoodSelf.bmp,C.bmp,Goodself,good,self,Yes,m,,,,k,0,293
6201,1,21,right,male,1,,55,GoodOther.bmp,C.bmp,Goodself,good,other,No,k,,,,k,1,617
6201,1,21,right,male,1,,56,GoodOther.bmp,P.bmp,Goodother,good,other,Yes,m,,,,,0,0
6201,1,21,right,male,1,,57,GoodSelf.bmp,T.bmp,Badother,good,self,No,k,,,,m,0,770
6201,1,21,right,male,1,,58,NormalSelf.bmp,S.bmp,Normalother,normal,self,No,k,,,,,0,0
6201,1,21,right,male,1,,59,NormalSelf.bmp,P.bmp,Goodother,normal,self,No,k,,,,k,1,745
6201,1,21,right,male,1,,60,GoodOther.bmp,P.bmp,Goodother,good,other,Yes,m,,,,m,1,605
6201,1,21,right,male,1,,61,NormalSelf.bmp,C.bmp,Goodself,normal,self,No,k,,,,k,1,747
6201,1,21,right,male,1,,62,BadSelf.bmp,Tra.bmp,Normalself,bad,self,No,k,,,,k,1,815
6201,1,21,right,male,1,,63,NormalOther.bmp,S.bmp,Normalother,normal,other,Yes,m,,,,,0,0
6201,1,21,right,male,1,,64,NormalOther.bmp,S.bmp,Normalother,normal,other,Yes,m,,,,m,1,799
6201,1,21,right,male,1,,65,BadOther.bmp,C.bmp,Goodself,bad,other,No,k,,,,k,1,731
6201,1,21,right,male,1,,66,GoodSelf.bmp,C.bmp,Goodself,good,self,Yes,m,,,,m,1,336
6201,1,21,right,male,1,,67,NormalOther.bmp,T.bmp,Badother,normal,other,No,k,,,,m,0,956
6201,1,21,right,male,1,,68,BadOther.bmp,P.bmp,Goodother,bad,other,No,k,,,,k,1,704
6201,1,21,right,male,1,,69,BadSelf.bmp,P.bmp,Goodother,bad,self,No,k,,,,k,1,844
6201,1,21,right,male,1,,70,NormalOther.bmp,P.bmp,Goodother,normal,other,No,k,,,,k,1,680
6201,1,21,right,male,1,,71,GoodSelf.bmp,C.bmp,Goodself,good,self,Yes,m,,,,m,1,428
6201,1,21,right,male,1,,72,GoodOther.bmp,T.bmp,Badother,good,other,No,k,,,,k,1,848
6201,1,21,right,male,1,,73,NormalSelf.bmp,S.bmp,Normalother,normal,self,No,k,,,,k,1,716
6201,1,21,right,male,1,,74,BadOther.bmp,T.bmp,Badother,bad,other,Yes,m,,,,k,0,969
6201,1,21,right,male,1,,75,NormalSelf.bmp,T.bmp,Badother,normal,self,No,k,,,,k,1,813
6201,1,21,right,male,1,,76,BadSelf.bmp,D.bmp,Badself,bad,self,Yes,m,,,,m,1,545
6201,1,21,right,male,1,,77,GoodOther.bmp,P.bmp,Goodother,good,other,Yes,m,,,,k,0,869
6201,1,21,right,male,1,,78,GoodSelf.bmp,T.bmp,Badother,good,self,No,k,,,,k,1,649
6201,1,21,right,male,1,,79,BadSelf.bmp,D.bmp,Badself,bad,self,Yes,m,,,,k,0,462
6201,1,21,right,male,1,,80,GoodOther.bmp,S.bmp,Normalother,good,other,No,k,,,,k,1,618
6201,1,21,right,male,1,,81,GoodOther.bmp,D.bmp,Badself,good,other,No,k,,,,k,1,654
6201,1,21,right,male,1,,82,BadOther.bmp,T.bmp,Badother,bad,other,Yes,m,,,,k,0,914
6201,1,21,right,male,1,,83,NormalOther.bmp,S.bmp,Normalother,normal,other,Yes,m,,,,,0,0
6201,1,21,right,male,1,,84,BadOther.bmp,Tra.bmp,Normalself,bad,other,No,k,,,,k,1,747
6201,1,21,right,male,1,,85,BadOther.bmp,T.bmp,Badother,bad,other,Yes,m,,,,m,1,694
6201,1,21,right,male,1,,86,GoodOther.bmp,C.bmp,Goodself,good,other,No,k,,,,m,0,378
6201,1,21,right,male,1,,87,NormalSelf.bmp,Tra.bmp,Normalself,normal,self,Yes,m,,,,m,1,678
6201,1,21,right,male,1,,88,GoodSelf.bmp,C.bmp,Goodself,good,self,Yes,m,,,,m,1,835
6201,1,21,right,male,1,,89,GoodSelf.bmp,Tra.bmp,Normalself,good,self,No,k,,,,k,1,383
6201,1,21,right,male,1,,90,GoodOther.bmp,Tra.bmp,Normalself,good,other,No,k,,,,k,1,643
6201,1,21,right,male,1,,91,NormalSelf.bmp,Tra.bmp,Normalself,normal,self,Yes,m,,,,m,1,1047
6201,1,21,right,male,1,,92,GoodOther.bmp,P.bmp,Goodother,good,other,Yes,m,,,,,0,0
6201,1,21,right,male,1,,93,BadSelf.bmp,T.bmp,Badother,bad,self,No,k,,,,k,1,880
6201,1,21,right,male,1,,94,GoodSelf.bmp,C.bmp,Goodself,good,self,Yes,m,,,,m,1,748
6201,1,21,right,male,1,,95,GoodSelf.bmp,D.bmp,Badself,good,self,No,k,,,,k,1,360
6201,1,21,right,male,1,,96,GoodOther.bmp,P.bmp,Goodother,good,other,Yes,m,,,,m,1,572
6201,1,21,right,male,1,,97,NormalOther.bmp,D.bmp,Badself,normal,other,No,k,,,,k,1,705
6201,1,21,right,male,1,,98,NormalSelf.bmp,P.bmp,Goodother,normal,self,No,k,,,,k,1,965
6201,1,21,right,male,1,,99,NormalSelf.bmp,Tra.bmp,Normalself,normal,self,Yes,m,,,,m,1,577
6201,1,21,right,male,1,,100,NormalOther.bmp,C.bmp,Goodself,normal,other,No,k,,,,k,1,732
6201,1,21,right,male,1,,101,BadOther.bmp,T.bmp,Badother,bad,other,Yes,m,,,,k,0,689
6201,1,21,right,male,1,,102,BadOther.bmp,T.bmp,Badother,bad,other,Yes,m,,,,m,1,1037
6201,1,21,right,male,1,,103,NormalSelf.bmp,Tra.bmp,Normalself,normal,self,Yes,m,,,,,0,0
6201,1,21,right,male,1,,104,NormalOther.bmp,S.bmp,Normalother,normal,other,Yes,m,,,,,0,0
6201,1,21,right,male,1,,105,GoodSelf.bmp,C.bmp,Goodself,good,self,Yes,m,,,,m,1,458
6201,1,21,right,male,1,,106,GoodSelf.bmp,S.bmp,Normalother,good,self,No,k,,,,k,1,462
6201,1,21,right,male,1,,107,GoodOther.bmp,P.bmp,Goodother,good,other,Yes,m,,,,m,1,434
6201,1,21,right,male,1,,108,NormalOther.bmp,Tra.bmp,Normalself,normal,other,No,k,,,,m,0,558
6201,1,21,right,male,1,,109,GoodSelf.bmp,P.bmp,Goodother,good,self,No,k,,,,k,1,610
6201,1,21,right,male,1,,110,NormalOther.bmp,S.bmp,Normalother,normal,other,Yes,m,,,,m,1,815
6201,1,21,right,male,1,,111,BadSelf.bmp,C.bmp,Goodself,bad,self,No,k,,,,k,1,235
6201,1,21,right,male,1,,112,BadSelf.bmp,D.bmp,Badself,bad,self,Yes,m,,,,m,1,919
6201,1,21,right,male,1,,113,GoodOther.bmp,P.bmp,Goodother,good,other,Yes,m,,,,m,1,619
6201,1,21,right,male,1,,114,BadSelf.bmp,D.bmp,Badself,bad,self,Yes,m,,,,m,1,567
6201,1,21,right,male,1,,115,BadOther.bmp,D.bmp,Badself,bad,other,No,k,,,,m,0,627
6201,1,21,right,male,1,,116,BadOther.bmp,S.bmp,Normalother,bad,other,No,k,,,,,0,0
6201,1,21,right,male,1,,117,NormalSelf.bmp,Tra.bmp,Normalself,normal,self,Yes,m,,,,m,1,627
6201,1,21,right,male,1,,118,BadSelf.bmp,D.bmp,Badself,bad,self,Yes,m,,,,m,1,543
6201,1,21,right,male,1,,119,BadSelf.bmp,S.bmp,Normalother,bad,self,No,k,,,,k,1,660
6201,1,21,right,male,1,,120,NormalSelf.bmp,D.bmp,Badself,normal,self,No,k,,,,,0,0
6201,1,21,right,male,2,,1,BadOther.bmp,P.bmp,Goodother,bad,other,No,k,,,,,0,0
6201,1,21,right,male,2,,2,NormalSelf.bmp,P.bmp,Goodother,normal,self,No,k,,,,,0,0
6201,1,21,right,male,2,,3,BadOther.bmp,T.bmp,Badother,bad,other,Yes,m,,,,,0,0
6201,1,21,right,male,2,,4,NormalSelf.bmp,C.bmp,Goodself,normal,self,No,k,,,,,0,0
6201,1,21,right,male,2,,5,GoodSelf.bmp,Tra.bmp,Normalself,good,self,No,k,,,,,0,0
6201,1,21,right,male,2,,6,BadOther.bmp,T.bmp,Badother,bad,other,Yes,m,,,,,0,0
6201,1,21,right,male,2,,7,GoodOther.bmp,P.bmp,Goodother,good,other,Yes,m,,,,,0,0
6201,1,21,right,male,2,,8,NormalSelf.bmp,Tra.bmp,Normalself,normal,self,Yes,m,,,,,0,0
6201,1,21,right,male,2,,9,BadSelf.bmp,D.bmp,Badself,bad,self,Yes,m,,,,,0,0
6201,1,21,right,male,2,,10,GoodOther.bmp,S.bmp,Normalother,good,other,No,k,,,,,0,0
6201,1,21,right,male,2,,11,NormalOther.bmp,P.bmp,Goodother,normal,other,No,k,,,,,0,0
6201,1,21,right,male,2,,12,GoodSelf.bmp,T.bmp,Badother,good,self,No,k,,,,,0,0
6201,1,21,right,male,2,,13,BadSelf.bmp,P.bmp,Goodother,bad,self,No,k,,,,,0,0
6201,1,21,right,male,2,,14,GoodSelf.bmp,S.bmp,Normalother,good,self,No,k,,,,,0,0
6201,1,21,right,male,2,,15,BadOther.bmp,T.bmp,Badother,bad,other,Yes,m,,,,,0,0
6201,1,21,right,male,2,,16,GoodOther.bmp,Tra.bmp,Normalself,good,other,No,k,,,,,0,0
6201,1,21,right,male,2,,17,NormalOther.bmp,S.bmp,Normalother,normal,other,Yes,m,,,,k,0,362
6201,1,21,right,male,2,,18,GoodOther.bmp,P.bmp,Goodother,good,other,Yes,m,,,,,0,0
6201,1,21,right,male,2,,19,NormalOther.bmp,Tra.bmp,Normalself,normal,other,No,k,,,,m,0,570
6201,1,21,right,male,2,,20,GoodSelf.bmp,C.bmp,Goodself,good,self,Yes,m,,,,m,1,366
6201,1,21,right,male,2,,21,BadOther.bmp,T.bmp,Badother,bad,other,Yes,m,,,,k,0,451
6201,1,21,right,male,2,,22,GoodOther.bmp,C.bmp,Goodself,good,other,No,k,,,,k,1,879
6201,1,21,right,male,2,,23,NormalOther.bmp,S.bmp,Normalother,normal,other,Yes,m,,,,k,0,1035
6201,1,21,right,male,2,,24,BadOther.bmp,D.bmp,Badself,bad,other,No,k,,,,m,0,983
6201,1,21,right,male,2,,25,NormalOther.bmp,S.bmp,Normalother,normal,other,Yes,m,,,,m,1,771
6201,1,21,right,male,2,,26,BadOther.bmp,T.bmp,Badother,bad,other,Yes,m,,,,,0,0
6201,1,21,right,male,2,,27,NormalOther.bmp,T.bmp,Badother,normal,other,No,k,,,,,0,0
6201,1,21,right,male,2,,28,NormalSelf.bmp,Tra.bmp,Normalself,normal,self,Yes,m,,,,,0,0
6201,1,21,right,male,2,,29,GoodSelf.bmp,P.bmp,Goodother,good,self,No,k,,,,k,1,691
6201,1,21,right,male,2,,30,GoodSelf.bmp,C.bmp,Goodself,good,self,Yes,m,,,,m,1,360
6201,1,21,right,male,2,,31,BadSelf.bmp,D.bmp,Badself,bad,self,Yes,m,,,,k,0,748
6201,1,21,right,male,2,,32,GoodOther.bmp,P.bmp,Goodother,good,other,Yes,m,,,,m,1,504
6201,1,21,right,male,2,,33,BadOther.bmp,S.bmp,Normalother,bad,other,No,k,,,,,0,0
6201,1,21,right,male,2,,34,NormalSelf.bmp,D.bmp,Badself,normal,self,No,k,,,,k,1,696
6201,1,21,right,male,2,,35,GoodOther.bmp,T.bmp,Badother,good,other,No,k,,,,k,1,685
6201,1,21,right,male,2,,36,NormalSelf.bmp,S.bmp,Normalother,normal,self,No,k,,,,k,1,537
6201,1,21,right,male,2,,37,NormalOther.bmp,D.bmp,Badself,normal,other,No,k,,,,k,1,661
6201,1,21,right,male,2,,38,BadSelf.bmp,Tra.bmp,Normalself,bad,self,No,k,,,,k,1,801
6201,1,21,right,male,2,,39,GoodSelf.bmp,D.bmp,Badself,good,self,No,k,,,,k,1,630
6201,1,21,right,male,2,,40,BadSelf.bmp,D.bmp,Badself,bad,self,Yes,m,,,,m,1,738
6201,1,21,right,male,2,,41,GoodSelf.bmp,C.bmp,Goodself,good,self,Yes,m,,,,m,1,270
6201,1,21,right,male,2,,42,BadSelf.bmp,D.bmp,Badself,bad,self,Yes,m,,,,m,1,969
6201,1,21,right,male,2,,43,BadSelf.bmp,D.bmp,Badself,bad,self,Yes,m,,,,m,1,590
6201,1,21,right,male,2,,44,NormalOther.bmp,S.bmp,Normalother,normal,other,Yes,m,,,,,0,0
6201,1,21,right,male,2,,45,BadSelf.bmp,C.bmp,Goodself,bad,self,No,k,,,,k,1,1070
6201,1,21,right,male,2,,46,NormalOther.bmp,C.bmp,Goodself,normal,other,No,k,,,,k,1,850
6201,1,21,right,male,2,,47,NormalSelf.bmp,T.bmp,Badother,normal,self,No,k,,,,k,1,878
6201,1,21,right,male,2,,48,BadSelf.bmp,T.bmp,Badother,bad,self,No,k,,,,k,1,795
6201,1,21,right,male,2,,49,BadOther.bmp,Tra.bmp,Normalself,bad,other,No,k,,,,k,1,727
6201,1,21,right,male,2,,50,GoodOther.bmp,D.bmp,Badself,good,other,No,k,,,,k,1,939
6201,1,21,right,male,2,,51,GoodOther.bmp,P.bmp,Goodother,good,other,Yes,m,,,,,0,0
6201,1,21,right,male,2,,52,BadOther.bmp,C.bmp,Goodself,bad,other,No,k,,,,k,1,484
6201,1,21,right,male,2,,53,NormalOther.bmp,S.bmp,Normalother,normal,other,Yes,m,,,,m,1,864
6201,1,21,right,male,2,,54,GoodSelf.bmp,C.bmp,Goodself,good,self,Yes,m,,,,m,1,372
6201,1,21,right,male,2,,55,BadSelf.bmp,S.bmp,Normalother,bad,self,No,k,,,,k,1,624
6201,1,21,right,male,2,,56,GoodOther.bmp,P.bmp,Goodother,good,other,Yes,m,,,,,0,0
6201,1,21,right,male,2,,57,NormalSelf.bmp,Tra.bmp,Normalself,normal,self,Yes,m,,,,,0,0
6201,1,21,right,male,2,,58,GoodSelf.bmp,C.bmp,Goodself,good,self,Yes,m,,,,,0,0
6201,1,21,right,male,2,,59,NormalSelf.bmp,Tra.bmp,Normalself,normal,self,Yes,m,,,,m,1,704
6201,1,21,right,male,2,,60,NormalSelf.bmp,Tra.bmp,Normalself,normal,self,Yes,m,,,,m,1,412
6201,1,21,right,male,2,,61,NormalSelf.bmp,P.bmp,Goodother,normal,self,No,k,,,,k,1,601
6201,1,21,right,male,2,,62,BadOther.bmp,D.bmp,Badself,bad,other,No,k,,,,k,1,917
6201,1,21,right,male,2,,63,GoodSelf.bmp,C.bmp,Goodself,good,self,Yes,m,,,,m,1,881
6201,1,21,right,male,2,,64,BadSelf.bmp,T.bmp,Badother,bad,self,No,k,,,,k,1,805
6201,1,21,right,male,2,,65,NormalSelf.bmp,Tra.bmp,Normalself,normal,self,Yes,m,,,,m,1,433
6201,1,21,right,male,2,,66,BadOther.bmp,T.bmp,Badother,bad,other,Yes,m,,,,m,1,870
6201,1,21,right,male,2,,67,NormalOther.bmp,Tra.bmp,Normalself,normal,other,No,k,,,,,0,0
6201,1,21,right,male,2,,68,NormalOther.bmp,S.bmp,Normalother,normal,other,Yes,m,,,,,0,0
6201,1,21,right,male,2,,69,BadOther.bmp,Tra.bmp,Normalself,bad,other,No,k,,,,k,1,874
6201,1,21,right,male,2,,70,BadOther.bmp,T.bmp,Badother,bad,other,Yes,m,,,,k,0,719
6201,1,21,right,male,2,,71,GoodSelf.bmp,C.bmp,Goodself,good,self,Yes,m,,,,m,1,314
6201,1,21,right,male,2,,72,BadSelf.bmp,D.bmp,Badself,bad,self,Yes,m,,,,m,1,654
6201,1,21,right,male,2,,73,BadSelf.bmp,D.bmp,Badself,bad,self,Yes,m,,,,m,1,418
6201,1,21,right,male,2,,74,GoodSelf.bmp,C.bmp,Goodself,good,self,Yes,m,,,,m,1,383
6201,1,21,right,male,2,,75,GoodOther.bmp,P.bmp,Goodother,good,other,Yes,m,,,,m,1,411
6201,1,21,right,male,2,,76,BadOther.bmp,S.bmp,Normalother,bad,other,No,k,,,,k,1,871
6201,1,21,right,male,2,,77,NormalSelf.bmp,C.bmp,Goodself,normal,self,No,k,,,,k,1,915
6201,1,21,right,male,2,,78,GoodOther.bmp,T.bmp,Badother,good,other,No,k,,,,k,1,703
6201,1,21,right,male,2,,79,NormalSelf.bmp,Tra.bmp,Normalself,normal,self,Yes,m,,,,m,1,780
6201,1,21,right,male,2,,80,NormalSelf.bmp,T.bmp,Badother,normal,self,No,k,,,,k,1,584
6201,1,21,right,male,2,,81,BadSelf.bmp,D.bmp,Badself,bad,self,Yes,m,,,,m,1,412
6201,1,21,right,male,2,,82,NormalOther.bmp,S.bmp,Normalother,normal,other,Yes,m,,,,k,0,512
6201,1,21,right,male,2,,83,GoodOther.bmp,P.bmp,Goodother,good,other,Yes,m,,,,m,1,365
6201,1,21,right,male,2,,84,GoodSelf.bmp,D.bmp,Badself,good,self,No,k,,,,k,1,513
6201,1,21,right,male,2,,85,NormalSelf.bmp,D.bmp,Badself,normal,self,No,k,,,,k,1,741
6201,1,21,right,male,2,,86,NormalOther.bmp,S.bmp,Normalother,normal,other,Yes,m,,,,m,1,689
6201,1,21,right,male,2,,87,NormalOther.bmp,T.bmp,Badother,normal,other,No,k,,,,k,1,508
6201,1,21,right,male,2,,88,NormalSelf.bmp,Tra.bmp,Normalself,normal,self,Yes,m,,,,m,1,585
6201,1,21,right,male,2,,89,BadOther.bmp,T.bmp,Badother,bad,other,Yes,m,,,,k,0,437
6201,1,21,right,male,2,,90,BadSelf.bmp,D.bmp,Badself,bad,self,Yes,m,,,,m,1,745
6201,1,21,right,male,2,,91,NormalOther.bmp,S.bmp,Normalother,normal,other,Yes,m,,,,m,1,885
6201,1,21,right,male,2,,92,BadOther.bmp,T.bmp,Badother,bad,other,Yes,m,,,,,0,0
6201,1,21,right,male,2,,93,GoodOther.bmp,D.bmp,Badself,good,other,No,k,,,,k,1,630
6201,1,21,right,male,2,,94,NormalSelf.bmp,Tra.bmp,Normalself,normal,self,Yes,m,,,,m,1,354
6201,1,21,right,male,2,,95,BadSelf.bmp,C.bmp,Goodself,bad,self,No,k,,,,k,1,798
6201,1,21,right,male,2,,96,NormalOther.bmp,S.bmp,Normalother,normal,other,Yes,m,,,,k,0,730
6201,1,21,right,male,2,,97,BadSelf.bmp,Tra.bmp,Normalself,bad,self,No,k,,,,k,1,1007
6201,1,21,right,male,2,,98,BadSelf.bmp,D.bmp,Badself,bad,self,Yes,m,,,,m,1,995
6201,1,21,right,male,2,,99,BadOther.bmp,T.bmp,Badother,bad,other,Yes,m,,,,m,1,711
6201,1,21,right,male,2,,100,NormalOther.bmp,P.bmp,Goodother,normal,other,No,k,,,,m,0,283
6201,1,21,right,male,2,,101,GoodSelf.bmp,T.bmp,Badother,good,self,No,k,,,,k,1,672
6201,1,21,right,male,2,,102,GoodSelf.bmp,C.bmp,Goodself,good,self,Yes,m,,,,,0,0
6201,1,21,right,male,2,,103,GoodOther.bmp,S.bmp,Normalother,good,other,No,k,,,,k,1,863
6201,1,21,right,male,2,,104,BadOther.bmp,C.bmp,Goodself,bad,other,No,k,,,,k,1,915
6201,1,21,right,male,2,,105,NormalOther.bmp,C.bmp,Goodself,normal,other,No,k,,,,k,1,792
6201,1,21,right,male,2,,106,GoodSelf.bmp,S.bmp,Normalother,good,self,No,k,,,,k,1,604
6201,1,21,right,male,2,,107,NormalSelf.bmp,Tra.bmp,Normalself,normal,self,Yes,m,,,,k,0,960
6201,1,21,right,male,2,,108,NormalOther.bmp,D.bmp,Badself,normal,other,No,k,,,,k,1,756
6201,1,21,right,male,2,,109,BadOther.bmp,P.bmp,Goodother,bad,other,No,k,,,,k,1,840
6201,1,21,right,male,2,,110,NormalSelf.bmp,S.bmp,Normalother,normal,self,No,k,,,,k,1,653
6201,1,21,right,male,2,,111,GoodSelf.bmp,P.bmp,Goodother,good,self,No,k,,,,k,1,489
6201,1,21,right,male,2,,112,BadSelf.bmp,S.bmp,Normalother,bad,self,No,k,,,,k,1,525
6201,1,21,right,male,2,,113,GoodSelf.bmp,C.bmp,Goodself,good,self,Yes,m,,,,m,1,953
6201,1,21,right,male,2,,114,GoodOther.bmp,P.bmp,Goodother,good,other,Yes,m,,,,m,1,446
6201,1,21,right,male,2,,115,GoodOther.bmp,Tra.bmp,Normalself,good,other,No,k,,,,k,1,290
6201,1,21,right,male,2,,116,GoodSelf.bmp,Tra.bmp,Normalself,good,self,No,k,,,,k,1,534
6201,1,21,right,male,2,,117,GoodOther.bmp,C.bmp,Goodself,good,other,No,k,,,,k,1,689
6201,1,21,right,male,2,,118,GoodOther.bmp,P.bmp,Goodother,good,other,Yes,m,,,,k,0,701
6201,1,21,right,male,2,,119,BadSelf.bmp,P.bmp,Goodother,bad,self,No,k,,,,,0,0
6201,1,21,right,male,2,,120,GoodOther.bmp,P.bmp,Goodother,good,other,Yes,m,,,,k,0,558
6201,1,21,right,male,3,,1,NormalSelf.bmp,C.bmp,Goodself,normal,self,No,k,,,,k,1,860
6201,1,21,right,male,3,,2,NormalSelf.bmp,D.bmp,Badself,normal,self,No,k,,,,,0,0
6201,1,21,right,male,3,,3,GoodOther.bmp,P.bmp,Goodother,good,other,Yes,m,,,,,0,0
6201,1,21,right,male,3,,4,BadOther.bmp,P.bmp,Goodother,bad,other,No,k,,,,,0,0
6201,1,21,right,male,3,,5,NormalOther.bmp,P.bmp,Goodother,normal,other,No,k,,,,,0,0
6201,1,21,right,male,3,,6,NormalSelf.bmp,Tra.bmp,Normalself,normal,self,Yes,m,,,,,0,0
6201,1,21,right,male,3,,7,NormalOther.bmp,D.bmp,Badself,normal,other,No,k,,,,,0,0
6201,1,21,right,male,3,,8,BadSelf.bmp,C.bmp,Goodself,bad,self,No,k,,,,,0,0
6201,1,21,right,male,3,,9,GoodSelf.bmp,T.bmp,Badother,good,self,No,k,,,,,0,0
6201,1,21,right,male,3,,10,NormalSelf.bmp,Tra.bmp,Normalself,normal,self,Yes,m,,,,,0,0
6201,1,21,right,male,3,,11,GoodOther.bmp,C.bmp,Goodself,good,other,No,k,,,,,0,0
6201,1,21,right,male,3,,12,GoodOther.bmp,P.bmp,Goodother,good,other,Yes,m,,,,k,0,825
6201,1,21,right,male,3,,13,BadSelf.bmp,P.bmp,Goodother,bad,self,No,k,,,,k,1,709
6201,1,21,right,male,3,,14,GoodSelf.bmp,C.bmp,Goodself,good,self,Yes,m,,,,m,1,458
6201,1,21,right,male,3,,15,NormalSelf.bmp,Tra.bmp,Normalself,normal,self,Yes,m,,,,k,0,790
6201,1,21,right,male,3,,16,GoodSelf.bmp,C.bmp,Goodself,good,self,Yes,m,,,,m,1,474
6201,1,21,right,male,3,,17,GoodSelf.bmp,P.bmp,Goodother,good,self,No,k,,,,k,1,350
6201,1,21,right,male,3,,18,NormalOther.bmp,T.bmp,Badother,normal,other,No,k,,,,k,1,938
6201,1,21,right,male,3,,19,BadOther.bmp,S.bmp,Normalother,bad,other,No,k,,,,k,1,1047
6201,1,21,right,male,3,,20,NormalSelf.bmp,T.bmp,Badother,normal,self,No,k,,,,k,1,619
6201,1,21,right,male,3,,21,GoodSelf.bmp,C.bmp,Goodself,good,self,Yes,m,,,,m,1,783
6201,1,21,right,male,3,,22,GoodSelf.bmp,Tra.bmp,Normalself,good,self,No,k,,,,k,1,627
6201,1,21,right,male,3,,23,NormalSelf.bmp,Tra.bmp,Normalself,normal,self,Yes,m,,,,k,0,711
6201,1,21,right,male,3,,24,GoodOther.bmp,Tra.bmp,Normalself,good,other,No,k,,,,,0,0
6201,1,21,right,male,3,,25,NormalOther.bmp,S.bmp,Normalother,normal,other,Yes,m,,,,k,0,303
6201,1,21,right,male,3,,26,BadSelf.bmp,D.bmp,Badself,bad,self,Yes,m,,,,,0,0
6201,1,21,right,male,3,,27,BadOther.bmp,T.bmp,Badother,bad,other,Yes,m,,,,,0,0
6201,1,21,right,male,3,,28,BadSelf.bmp,T.bmp,Badother,bad,self,No,k,,,,k,1,948
6201,1,21,right,male,3,,29,NormalSelf.bmp,S.bmp,Normalother,normal,self,No,k,,,,k,1,560
6201,1,21,right,male,3,,30,BadSelf.bmp,D.bmp,Badself,bad,self,Yes,m,,,,m,1,524
6201,1,21,right,male,3,,31,GoodOther.bmp,P.bmp,Goodother,good,other,Yes,m,,,,m,1,544
6201,1,21,right,male,3,,32,NormalSelf.bmp,P.bmp,Goodother,normal,self,No,k,,,,k,1,485
6201,1,21,right,male,3,,33,NormalOther.bmp,C.bmp,Goodself,normal,other,No,k,,,,k,1,777
6201,1,21,right,male,3,,34,BadOther.bmp,Tra.bmp,Normalself,bad,other,No,k,,,,k,1,885
6201,1,21,right,male,3,,35,BadOther.bmp,C.bmp,Goodself,bad,other,No,k,,,,k,1,585
6201,1,21,right,male,3,,36,NormalOther.bmp,Tra.bmp,Normalself,normal,other,No,k,,,,k,1,766
6201,1,21,right,male,3,,37,BadOther.bmp,T.bmp,Badother,bad,other,Yes,m,,,,k,0,666
6201,1,21,right,male,3,,38,NormalSelf.bmp,Tra.bmp,Normalself,normal,self,Yes,m,,,,m,1,885
6201,1,21,right,male,3,,39,BadSelf.bmp,D.bmp,Badself,bad,self,Yes,m,,,,m,1,553
6201,1,21,right,male,3,,40,BadSelf.bmp,D.bmp,Badself,bad,self,Yes,m,,,,m,1,349
6201,1,21,right,male,3,,41,BadOther.bmp,D.bmp,Badself,bad,other,No,k,,,,k,1,778
6201,1,21,right,male,3,,42,GoodSelf.bmp,C.bmp,Goodself,good,self,Yes,m,,,,m,1,334
6201,1,21,right,male,3,,43,GoodOther.bmp,P.bmp,Goodother,good,other,Yes,m,,,,m,1,370
6201,1,21,right,male,3,,44,BadOther.bmp,T.bmp,Badother,bad,other,Yes,m,,,,k,0,918
6201,1,21,right,male,3,,45,BadSelf.bmp,Tra.bmp,Normalself,bad,self,No,k,,,,k,1,875
6201,1,21,right,male,3,,46,GoodSelf.bmp,D.bmp,Badself,good,self,No,k,,,,k,1,567
6201,1,21,right,male,3,,47,BadSelf.bmp,S.bmp,Normalother,bad,self,No,k,,,,m,0,659
6201,1,21,right,male,3,,48,GoodOther.bmp,P.bmp,Goodother,good,other,Yes,m,,,,k,0,311
6201,1,21,right,male,3,,49,BadSelf.bmp,D.bmp,Badself,bad,self,Yes,m,,,,m,1,635
6201,1,21,right,male,3,,50,BadOther.bmp,T.bmp,Badother,bad,other,Yes,m,,,,m,1,448
6201,1,21,right,male,3,,51,NormalOther.bmp,S.bmp,Normalother,normal,other,Yes,m,,,,,0,0
6201,1,21,right,male,3,,52,GoodOther.bmp,D.bmp,Badself,good,other,No,k,,,,m,0,432
6201,1,21,right,male,3,,53,GoodOther.bmp,S.bmp,Normalother,good,other,No,k,,,,k,1,659
6201,1,21,right,male,3,,54,BadOther.bmp,T.bmp,Badother,bad,other,Yes,m,,,,m,1,808
6201,1,21,right,male,3,,55,NormalOther.bmp,S.bmp,Normalother,normal,other,Yes,m,,,,,0,0
6201,1,21,right,male,3,,56,GoodSelf.bmp,S.bmp,Normalother,good,self,No,k,,,,k,1,1008
6201,1,21,right,male,3,,57,GoodSelf.bmp,C.bmp,Goodself,good,self,Yes,m,,,,m,1,684
6201,1,21,right,male,3,,58,GoodOther.bmp,T.bmp,Badother,good,other,No,k,,,,k,1,545
6201,1,21,right,male,3,,59,NormalOther.bmp,S.bmp,Normalother,normal,other,Yes,m,,,,k,0,821
6201,1,21,right,male,3,,60,NormalOther.bmp,S.bmp,Normalother,normal,other,Yes,m,,,,m,1,425
6201,1,21,right,male,3,,61,BadSelf.bmp,D.bmp,Badself,bad,self,Yes,m,,,,m,1,653
6201,1,21,right,male,3,,62,GoodOther.bmp,P.bmp,Goodother,good,other,Yes,m,,,,,0,0
6201,1,21,right,male,3,,63,NormalOther.bmp,T.bmp,Badother,normal,other,No,k,,,,k,1,830
6201,1,21,right,male,3,,64,BadOther.bmp,T.bmp,Badother,bad,other,Yes,m,,,,k,0,274
6201,1,21,right,male,3,,65,BadOther.bmp,D.bmp,Badself,bad,other,No,k,,,,m,0,790
6201,1,21,right,male,3,,66,GoodOther.bmp,P.bmp,Goodother,good,other,Yes,m,,,,k,0,866
6201,1,21,right,male,3,,67,BadSelf.bmp,S.bmp,Normalother,bad,self,No,k,,,,k,1,895
6201,1,21,right,male,3,,68,GoodSelf.bmp,P.bmp,Goodother,good,self,No,k,,,,k,1,498
6201,1,21,right,male,3,,69,BadSelf.bmp,P.bmp,Goodother,bad,self,No,k,,,,k,1,726
6201,1,21,right,male,3,,70,GoodOther.bmp,P.bmp,Goodother,good,other,Yes,m,,,,m,1,690
6201,1,21,right,male,3,,71,GoodOther.bmp,P.bmp,Goodother,good,other,Yes,m,,,,m,1,382
6201,1,21,right,male,3,,72,NormalOther.bmp,S.bmp,Normalother,normal,other,Yes,m,,,,,0,0
6201,1,21,right,male,3,,73,GoodSelf.bmp,S.bmp,Normalother,good,self,No,k,,,,k,1,455
6201,1,21,right,male,3,,74,BadOther.bmp,T.bmp,Badother,bad,other,Yes,m,,,,k,0,747
6201,1,21,right,male,3,,75,GoodSelf.bmp,C.bmp,Goodself,good,self,Yes,m,,,,m,1,295
6201,1,21,right,male,3,,76,NormalOther.bmp,S.bmp,Normalother,normal,other,Yes,m,,,,k,0,820
6201,1,21,right,male,3,,77,BadOther.bmp,P.bmp,Goodother,bad,other,No,k,,,,,0,0
6201,1,21,right,male,3,,78,GoodSelf.bmp,C.bmp,Goodself,good,self,Yes,m,,,,m,1,668
6201,1,21,right,male,3,,79,BadSelf.bmp,D.bmp,Badself,bad,self,Yes,m,,,,,0,0
6201,1,21,right,male,3,,80,BadSelf.bmp,D.bmp,Badself,bad,self,Yes,m,,,,m,1,268
6201,1,21,right,male,3,,81,NormalOther.bmp,S.bmp,Normalother,normal,other,Yes,m,,,,m,1,361
6201,1,21,right,male,3,,82,NormalOther.bmp,P.bmp,Goodother,normal,other,No,k,,,,k,1,701
6201,1,21,right,male,3,,83,GoodOther.bmp,C.bmp,Goodself,good,other,No,k,,,,k,1,561
6201,1,21,right,male,3,,84,NormalOther.bmp,D.bmp,Badself,normal,other,No,k,,,,m,0,356
6201,1,21,right,male,3,,85,BadSelf.bmp,C.bmp,Goodself,bad,self,No,k,,,,k,1,625
6201,1,21,right,male,3,,86,BadOther.bmp,T.bmp,Badother,bad,other,Yes,m,,,,k,0,1069
6201,1,21,right,male,3,,87,NormalSelf.bmp,S.bmp,Normalother,normal,self,No,k,,,,m,0,641
6201,1,21,right,male,3,,88,GoodOther.bmp,T.bmp,Badother,good,other,No,k,,,,k,1,581
6201,1,21,right,male,3,,89,NormalSelf.bmp,P.bmp,Goodother,normal,self,No,k,,,,k,1,586
6201,1,21,right,male,3,,90,BadOther.bmp,T.bmp,Badother,bad,other,Yes,m,,,,m,1,638
6201,1,21,right,male,3,,91,BadSelf.bmp,D.bmp,Badself,bad,self,Yes,m,,,,m,1,738
6201,1,21,right,male,3,,92,NormalOther.bmp,C.bmp,Goodself,normal,other,No,k,,,,k,1,758
6201,1,21,right,male,3,,93,GoodOther.bmp,P.bmp,Goodother,good,other,Yes,m,,,,k,0,786
6201,1,21,right,male,3,,94,NormalSelf.bmp,Tra.bmp,Normalself,normal,self,Yes,m,,,,m,1,615
6201,1,21,right,male,3,,95,BadSelf.bmp,D.bmp,Badself,bad,self,Yes,m,,,,m,1,499
6201,1,21,right,male,3,,96,GoodOther.bmp,S.bmp,Normalother,good,other,No,k,,,,m,0,191
6201,1,21,right,male,3,,97,GoodSelf.bmp,T.bmp,Badother,good,self,No,k,,,,m,0,75
6201,1,21,right,male,3,,98,NormalSelf.bmp,Tra.bmp,Normalself,normal,self,Yes,m,,,,m,1,480
6201,1,21,right,male,3,,99,BadOther.bmp,C.bmp,Goodself,bad,other,No,k,,,,k,1,587
6201,1,21,right,male,3,,100,BadSelf.bmp,Tra.bmp,Normalself,bad,self,No,k,,,,m,0,495
6201,1,21,right,male,3,,101,GoodSelf.bmp,C.bmp,Goodself,good,self,Yes,m,,,,m,1,307
6201,1,21,right,male,3,,102,NormalSelf.bmp,Tra.bmp,Normalself,normal,self,Yes,m,,,,m,1,760
6201,1,21,right,male,3,,103,GoodSelf.bmp,Tra.bmp,Normalself,good,self,No,k,,,,k,1,628
6201,1,21,right,male,3,,104,NormalOther.bmp,Tra.bmp,Normalself,normal,other,No,k,,,,k,1,1008
6201,1,21,right,male,3,,105,NormalSelf.bmp,D.bmp,Badself,normal,self,No,k,,,,k,1,812
6201,1,21,right,male,3,,106,BadOther.bmp,T.bmp,Badother,bad,other,Yes,m,,,,m,1,576
6201,1,21,right,male,3,,107,NormalSelf.bmp,C.bmp,Goodself,normal,self,No,k,,,,k,1,957
6201,1,21,right,male,3,,108,BadOther.bmp,Tra.bmp,Normalself,bad,other,No,k,,,,k,1,849
6201,1,21,right,male,3,,109,NormalOther.bmp,S.bmp,Normalother,normal,other,Yes,m,,,,m,1,589
6201,1,21,right,male,3,,110,GoodSelf.bmp,C.bmp,Goodself,good,self,Yes,m,,,,m,1,329
6201,1,21,right,male,3,,111,NormalSelf.bmp,T.bmp,Badother,normal,self,No,k,,,,k,1,206
6201,1,21,right,male,3,,112,GoodOther.bmp,D.bmp,Badself,good,other,No,k,,,,k,1,666
6201,1,21,right,male,3,,113,NormalSelf.bmp,Tra.bmp,Normalself,normal,self,Yes,m,,,,m,1,357
6201,1,21,right,male,3,,114,BadOther.bmp,S.bmp,Normalother,bad,other,No,k,,,,k,1,553
6201,1,21,right,male,3,,115,GoodSelf.bmp,C.bmp,Goodself,good,self,Yes,m,,,,m,1,309
6201,1,21,right,male,3,,116,NormalOther.bmp,S.bmp,Normalother,normal,other,Yes,m,,,,,0,0
6201,1,21,right,male,3,,117,GoodSelf.bmp,D.bmp,Badself,good,self,No,k,,,,k,1,822
6201,1,21,right,male,3,,118,NormalSelf.bmp,Tra.bmp,Normalself,normal,self,Yes,m,,,,m,1,730
6201,1,21,right,male,3,,119,GoodOther.bmp,Tra.bmp,Normalself,good,other,No,k,,,,k,1,894
6201,1,21,right,male,3,,120,BadSelf.bmp,T.bmp,Badother,bad,self,No,k,,,,k,1,603
6201,1,21,right,male,4,,1,BadSelf.bmp,Tra.bmp,Normalself,bad,self,No,k,,,,k,1,733
6201,1,21,right,male,4,,2,NormalSelf.bmp,Tra.bmp,Normalself,normal,self,Yes,m,,,,k,0,714
6201,1,21,right,male,4,,3,NormalSelf.bmp,Tra.bmp,Normalself,normal,self,Yes,m,,,,,0,0
6201,1,21,right,male,4,,4,NormalOther.bmp,P.bmp,Goodother,normal,other,No,k,,,,k,1,546
6201,1,21,right,male,4,,5,NormalSelf.bmp,C.bmp,Goodself,normal,self,No,k,,,,m,0,958
6201,1,21,right,male,4,,6,NormalOther.bmp,S.bmp,Normalother,normal,other,Yes,m,,,,m,1,946
6201,1,21,right,male,4,,7,NormalSelf.bmp,T.bmp,Badother,normal,self,No,k,,,,k,1,486
6201,1,21,right,male,4,,8,NormalSelf.bmp,Tra.bmp,Normalself,normal,self,Yes,m,,,,k,0,690
6201,1,21,right,male,4,,9,BadOther.bmp,P.bmp,Goodother,bad,other,No,k,,,,,0,0
6201,1,21,right,male,4,,10,BadOther.bmp,T.bmp,Badother,bad,other,Yes,m,,,,m,1,650
6201,1,21,right,male,4,,11,NormalOther.bmp,C.bmp,Goodself,normal,other,No,k,,,,k,1,687
6201,1,21,right,male,4,,12,GoodSelf.bmp,C.bmp,Goodself,good,self,Yes,m,,,,m,1,291
6201,1,21,right,male,4,,13,NormalOther.bmp,T.bmp,Badother,normal,other,No,k,,,,,0,0
6201,1,21,right,male,4,,14,GoodOther.bmp,T.bmp,Badother,good,other,No,k,,,,k,1,547
6201,1,21,right,male,4,,15,GoodSelf.bmp,D.bmp,Badself,good,self,No,k,,,,k,1,520
6201,1,21,right,male,4,,16,NormalOther.bmp,S.bmp,Normalother,normal,other,Yes,m,,,,m,1,932
6201,1,21,right,male,4,,17,BadSelf.bmp,D.bmp,Badself,bad,self,Yes,m,,,,m,1,600
6201,1,21,right,male,4,,18,GoodSelf.bmp,C.bmp,Goodself,good,self,Yes,m,,,,m,1,372
6201,1,21,right,male,4,,19,BadOther.bmp,D.bmp,Badself,bad,other,No,k,,,,k,1,985
6201,1,21,right,male,4,,20,GoodOther.bmp,C.bmp,Goodself,good,other,No,k,,,,k,1,845
6201,1,21,right,male,4,,21,BadOther.bmp,T.bmp,Badother,bad,other,Yes,m,,,,m,1,856
6201,1,21,right,male,4,,22,NormalOther.bmp,Tra.bmp,Normalself,normal,other,No,k,,,,m,0,804
6201,1,21,right,male,4,,23,NormalSelf.bmp,P.bmp,Goodother,normal,self,No,k,,,,k,1,632
6201,1,21,right,male,4,,24,BadSelf.bmp,D.bmp,Badself,bad,self,Yes,m,,,,m,1,421
6201,1,21,right,male,4,,25,GoodSelf.bmp,C.bmp,Goodself,good,self,Yes,m,,,,m,1,681
6201,1,21,right,male,4,,26,GoodOther.bmp,P.bmp,Goodother,good,other,Yes,m,,,,m,1,349
6201,1,21,right,male,4,,27,GoodSelf.bmp,T.bmp,Badother,good,self,No,k,,,,k,1,809
6201,1,21,right,male,4,,28,NormalSelf.bmp,Tra.bmp,Normalself,normal,self,Yes,m,,,,m,1,390
6201,1,21,right,male,4,,29,BadSelf.bmp,T.bmp,Badother,bad,self,No,k,,,,k,1,482
6201,1,21,right,male,4,,30,GoodOther.bmp,P.bmp,Goodother,good,other,Yes,m,,,,m,1,878
6201,1,21,right,male,4,,31,GoodSelf.bmp,S.bmp,Normalother,good,self,No,k,,,,k,1,522
6201,1,21,right,male,4,,32,BadOther.bmp,T.bmp,Badother,bad,other,Yes,m,,,,m,1,470
6201,1,21,right,male,4,,33,BadSelf.bmp,D.bmp,Badself,bad,self,Yes,m,,,,m,1,459
6201,1,21,right,male,4,,34,NormalSelf.bmp,D.bmp,Badself,normal,self,No,k,,,,,0,0
6201,1,21,right,male,4,,35,BadSelf.bmp,C.bmp,Goodself,bad,self,No,k,,,,k,1,867
6201,1,21,right,male,4,,36,GoodOther.bmp,P.bmp,Goodother,good,other,Yes,m,,,,m,1,326
6201,1,21,right,male,4,,37,GoodOther.bmp,D.bmp,Badself,good,other,No,k,,,,k,1,667
6201,1,21,right,male,4,,38,BadOther.bmp,T.bmp,Badother,bad,other,Yes,m,,,,m,1,471
6201,1,21,right,male,4,,39,BadSelf.bmp,D.bmp,Badself,bad,self,Yes,m,,,,,0,0
6201,1,21,right,male,4,,40,BadOther.bmp,S.bmp,Normalother,bad,other,No,k,,,,,0,0
6201,1,21,right,male,4,,41,GoodSelf.bmp,Tra.bmp,Normalself,good,self,No,k,,,,k,1,492
6201,1,21,right,male,4,,42,BadOther.bmp,C.bmp,Goodself,bad,other,No,k,,,,k,1,688
6201,1,21,right,male,4,,43,NormalOther.bmp,S.bmp,Normalother,normal,other,Yes,m,,,,m,1,764
6201,1,21,right,male,4,,44,BadSelf.bmp,S.bmp,Normalother,bad,self,No,k,,,,k,1,552
6201,1,21,right,male,4,,45,GoodSelf.bmp,C.bmp,Goodself,good,self,Yes,m,,,,m,1,996
6201,1,21,right,male,4,,46,GoodSelf.bmp,C.bmp,Goodself,good,self,Yes,m,,,,m,1,385
6201,1,21,right,male,4,,47,GoodOther.bmp,Tra.bmp,Normalself,good,other,No,k,,,,k,1,965
6201,1,21,right,male,4,,48,NormalOther.bmp,S.bmp,Normalother,normal,other,Yes,m,,,,m,1,617
6201,1,21,right,male,4,,49,NormalSelf.bmp,S.bmp,Normalother,normal,self,No,k,,,,,0,0
6201,1,21,right,male,4,,50,NormalOther.bmp,S.bmp,Normalother,normal,other,Yes,m,,,,m,1,977
6201,1,21,right,male,4,,51,BadSelf.bmp,D.bmp,Badself,bad,self,Yes,m,,,,m,1,501
6201,1,21,right,male,4,,52,NormalOther.bmp,D.bmp,Badself,normal,other,No,k,,,,m,0,713
6201,1,21,right,male,4,,53,GoodOther.bmp,P.bmp,Goodother,good,other,Yes,m,,,,m,1,629
6201,1,21,right,male,4,,54,BadSelf.bmp,P.bmp,Goodother,bad,self,No,k,,,,k,1,634
6201,1,21,right,male,4,,55,NormalSelf.bmp,Tra.bmp,Normalself,normal,self,Yes,m,,,,m,1,638
6201,1,21,right,male,4,,56,BadOther.bmp,Tra.bmp,Normalself,bad,other,No,k,,,,m,0,906
6201,1,21,right,male,4,,57,GoodOther.bmp,P.bmp,Goodother,good,other,Yes,m,,,,m,1,550
6201,1,21,right,male,4,,58,GoodOther.bmp,S.bmp,Normalother,good,other,No,k,,,,k,1,650
6201,1,21,right,male,4,,59,GoodSelf.bmp,P.bmp,Goodother,good,self,No,k,,,,k,1,519
6201,1,21,right,male,4,,60,BadOther.bmp,T.bmp,Badother,bad,other,Yes,m,,,,m,1,707
6201,1,21,right,male,4,,61,BadSelf.bmp,T.bmp,Badother,bad,self,No,k,,,,k,1,695
6201,1,21,right,male,4,,62,GoodSelf.bmp,Tra.bmp,Normalself,good,self,No,k,,,,k,1,603
6201,1,21,right,male,4,,63,GoodSelf.bmp,P.bmp,Goodother,good,self,No,k,,,,k,1,520
6201,1,21,right,male,4,,64,BadOther.bmp,T.bmp,Badother,bad,other,Yes,m,,,,m,1,484
6201,1,21,right,male,4,,65,NormalOther.bmp,S.bmp,Normalother,normal,other,Yes,m,,,,m,1,904
6201,1,21,right,male,4,,66,GoodSelf.bmp,D.bmp,Badself,good,self,No,k,,,,k,1,675
6201,1,21,right,male,4,,67,NormalOther.bmp,Tra.bmp,Normalself,normal,other,No,k,,,,k,1,768
6201,1,21,right,male,4,,68,GoodSelf.bmp,T.bmp,Badother,good,self,No,k,,,,k,1,852
6201,1,21,right,male,4,,69,NormalOther.bmp,S.bmp,Normalother,normal,other,Yes,m,,,,m,1,832
6201,1,21,right,male,4,,70,NormalSelf.bmp,Tra.bmp,Normalself,normal,self,Yes,m,,,,m,1,364
6201,1,21,right,male,4,,71,GoodSelf.bmp,C.bmp,Goodself,good,self,Yes,m,,,,m,1,304
6201,1,21,right,male,4,,72,NormalSelf.bmp,Tra.bmp,Normalself,normal,self,Yes,m,,,,m,1,629
6201,1,21,right,male,4,,73,GoodSelf.bmp,C.bmp,Goodself,good,self,Yes,m,,,,k,0,617
6201,1,21,right,male,4,,74,NormalSelf.bmp,S.bmp,Normalother,normal,self,No,k,,,,k,1,885
6201,1,21,right,male,4,,75,GoodSelf.bmp,S.bmp,Normalother,good,self,No,k,,,,k,1,473
6201,1,21,right,male,4,,76,NormalOther.bmp,T.bmp,Badother,normal,other,No,k,,,,k,1,670
6201,1,21,right,male,4,,77,NormalSelf.bmp,Tra.bmp,Normalself,normal,self,Yes,m,,,,m,1,378
6201,1,21,right,male,4,,78,BadSelf.bmp,P.bmp,Goodother,bad,self,No,k,,,,k,1,390
6201,1,21,right,male,4,,79,GoodOther.bmp,Tra.bmp,Normalself,good,other,No,k,,,,k,1,506
6201,1,21,right,male,4,,80,BadOther.bmp,D.bmp,Badself,bad,other,No,k,,,,m,0,798
6201,1,21,right,male,4,,81,BadSelf.bmp,S.bmp,Normalother,bad,self,No,k,,,,k,1,674
6201,1,21,right,male,4,,82,NormalOther.bmp,S.bmp,Normalother,normal,other,Yes,m,,,,m,1,614
6201,1,21,right,male,4,,83,NormalSelf.bmp,C.bmp,Goodself,normal,self,No,k,,,,k,1,818
6201,1,21,right,male,4,,84,GoodOther.bmp,D.bmp,Badself,good,other,No,k,,,,k,1,646
6201,1,21,right,male,4,,85,BadSelf.bmp,D.bmp,Badself,bad,self,Yes,m,,,,m,1,539
6201,1,21,right,male,4,,86,GoodOther.bmp,C.bmp,Goodself,good,other,No,k,,,,k,1,863
6201,1,21,right,male,4,,87,GoodOther.bmp,P.bmp,Goodother,good,other,Yes,m,,,,m,1,691
6201,1,21,right,male,4,,88,NormalOther.bmp,C.bmp,Goodself,normal,other,No,k,,,,k,1,607
6201,1,21,right,male,4,,89,GoodOther.bmp,P.bmp,Goodother,good,other,Yes,m,,,,k,0,716
6201,1,21,right,male,4,,90,BadOther.bmp,T.bmp,Badother,bad,other,Yes,m,,,,m,1,696
6201,1,21,right,male,4,,91,BadSelf.bmp,D.bmp,Badself,bad,self,Yes,m,,,,m,1,308
6201,1,21,right,male,4,,92,GoodSelf.bmp,C.bmp,Goodself,good,self,Yes,m,,,,m,1,768
6201,1,21,right,male,4,,93,GoodSelf.bmp,C.bmp,Goodself,good,self,Yes,m,,,,m,1,468
6201,1,21,right,male,4,,94,NormalOther.bmp,P.bmp,Goodother,normal,other,No,k,,,,k,1,889
6201,1,21,right,male,4,,95,NormalSelf.bmp,D.bmp,Badself,normal,self,No,k,,,,k,1,756
6201,1,21,right,male,4,,96,NormalSelf.bmp,T.bmp,Badother,normal,self,No,k,,,,k,1,617
6201,1,21,right,male,4,,97,BadSelf.bmp,Tra.bmp,Normalself,bad,self,No,k,,,,k,1,532
6201,1,21,right,male,4,,98,BadSelf.bmp,C.bmp,Goodself,bad,self,No,k,,,,k,1,865
6201,1,21,right,male,4,,99,BadOther.bmp,T.bmp,Badother,bad,other,Yes,m,,,,m,1,589
6201,1,21,right,male,4,,100,NormalSelf.bmp,P.bmp,Goodother,normal,self,No,k,,,,k,1,689
6201,1,21,right,male,4,,101,BadOther.bmp,P.bmp,Goodother,bad,other,No,k,,,,k,1,549
6201,1,21,right,male,4,,102,NormalOther.bmp,S.bmp,Normalother,normal,other,Yes,m,,,,,0,0
6201,1,21,right,male,4,,103,NormalOther.bmp,S.bmp,Normalother,normal,other,Yes,m,,,,m,1,558
6201,1,21,right,male,4,,104,BadOther.bmp,T.bmp,Badother,bad,other,Yes,m,,,,m,1,594
6201,1,21,right,male,4,,105,GoodOther.bmp,P.bmp,Goodother,good,other,Yes,m,,,,m,1,878
6201,1,21,right,male,4,,106,BadSelf.bmp,D.bmp,Badself,bad,self,Yes,m,,,,m,1,522
6201,1,21,right,male,4,,107,NormalSelf.bmp,Tra.bmp,Normalself,normal,self,Yes,m,,,,m,1,527
6201,1,21,right,male,4,,108,GoodOther.bmp,P.bmp,Goodother,good,other,Yes,m,,,,k,0,899
6201,1,21,right,male,4,,109,BadOther.bmp,S.bmp,Normalother,bad,other,No,k,,,,,0,0
6201,1,21,right,male,4,,110,BadOther.bmp,Tra.bmp,Normalself,bad,other,No,k,,,,k,1,507
6201,1,21,right,male,4,,111,BadOther.bmp,T.bmp,Badother,bad,other,Yes,m,,,,m,1,392
6201,1,21,right,male,4,,112,NormalOther.bmp,D.bmp,Badself,normal,other,No,k,,,,k,1,523
6201,1,21,right,male,4,,113,BadSelf.bmp,D.bmp,Badself,bad,self,Yes,m,,,,m,1,727
6201,1,21,right,male,4,,114,BadOther.bmp,C.bmp,Goodself,bad,other,No,k,,,,k,1,643
6201,1,21,right,male,4,,115,GoodOther.bmp,P.bmp,Goodother,good,other,Yes,m,,,,k,0,808
6201,1,21,right,male,4,,116,NormalSelf.bmp,Tra.bmp,Normalself,normal,self,Yes,m,,,,m,1,964
6201,1,21,right,male,4,,117,BadSelf.bmp,D.bmp,Badself,bad,self,Yes,m,,,,m,1,464
6201,1,21,right,male,4,,118,GoodOther.bmp,T.bmp,Badother,good,other,No,k,,,,k,1,676
6201,1,21,right,male,4,,119,GoodOther.bmp,S.bmp,Normalother,good,other,No,k,,,,m,0,224
6201,1,21,right,male,4,,120,GoodSelf.bmp,C.bmp,Goodself,good,self,Yes,m,,,,m,1,565
6201,1,21,right,male,5,,1,NormalOther.bmp,S.bmp,Normalother,normal,other,Yes,m,,,,,0,0
6201,1,21,right,male,5,,2,GoodSelf.bmp,T.bmp,Badother,good,self,No,k,,,,,0,0
6201,1,21,right,male,5,,3,GoodSelf.bmp,C.bmp,Goodself,good,self,Yes,m,,,,,0,0
6201,1,21,right,male,5,,4,NormalOther.bmp,P.bmp,Goodother,normal,other,No,k,,,,,0,0
6201,1,21,right,male,5,,5,BadOther.bmp,T.bmp,Badother,bad,other,Yes,m,,,,,0,0
6201,1,21,right,male,5,,6,GoodSelf.bmp,C.bmp,Goodself,good,self,Yes,m,,,,m,1,215
6201,1,21,right,male,5,,7,GoodSelf.bmp,C.bmp,Goodself,good,self,Yes,m,,,,k,0,171
6201,1,21,right,male,5,,8,BadSelf.bmp,C.bmp,Goodself,bad,self,No,k,,,,k,1,175
6201,1,21,right,male,5,,9,NormalOther.bmp,Tra.bmp,Normalself,normal,other,No,k,,,,k,1,49
6201,1,21,right,male,5,,10,BadSelf.bmp,D.bmp,Badself,bad,self,Yes,m,,,,,0,0
6201,1,21,right,male,5,,11,BadOther.bmp,T.bmp,Badother,bad,other,Yes,m,,,,,0,0
6201,1,21,right,male,5,,12,NormalOther.bmp,S.bmp,Normalother,normal,other,Yes,m,,,,k,0,630
6201,1,21,right,male,5,,13,NormalSelf.bmp,S.bmp,Normalother,normal,self,No,k,,,,,0,0
6201,1,21,right,male,5,,14,NormalSelf.bmp,Tra.bmp,Normalself,normal,self,Yes,m,,,,,0,0
6201,1,21,right,male,5,,15,NormalSelf.bmp,C.bmp,Goodself,normal,self,No,k,,,,,0,0
6201,1,21,right,male,5,,16,BadSelf.bmp,D.bmp,Badself,bad,self,Yes,m,,,,,0,0
6201,1,21,right,male,5,,17,NormalOther.bmp,S.bmp,Normalother,normal,other,Yes,m,,,,k,0,866
6201,1,21,right,male,5,,18,GoodSelf.bmp,C.bmp,Goodself,good,self,Yes,m,,,,m,1,702
6201,1,21,right,male,5,,19,BadSelf.bmp,T.bmp,Badother,bad,self,No,k,,,,k,1,547
6201,1,21,right,male,5,,20,GoodOther.bmp,P.bmp,Goodother,good,other,Yes,m,,,,k,0,767
6201,1,21,right,male,5,,21,NormalSelf.bmp,D.bmp,Badself,normal,self,No,k,,,,,0,0
6201,1,21,right,male,5,,22,GoodOther.bmp,P.bmp,Goodother,good,other,Yes,m,,,,k,0,887
6201,1,21,right,male,5,,23,BadOther.bmp,T.bmp,Badother,bad,other,Yes,m,,,,m,1,779
6201,1,21,right,male,5,,24,NormalSelf.bmp,Tra.bmp,Normalself,normal,self,Yes,m,,,,m,1,808
6201,1,21,right,male,5,,25,BadSelf.bmp,D.bmp,Badself,bad,self,Yes,m,,,,m,1,564
6201,1,21,right,male,5,,26,BadOther.bmp,Tra.bmp,Normalself,bad,other,No,k,,,,k,1,896
6201,1,21,right,male,5,,27,GoodOther.bmp,T.bmp,Badother,good,other,No,k,,,,k,1,660
6201,1,21,right,male,5,,28,NormalSelf.bmp,P.bmp,Goodother,normal,self,No,k,,,,,0,0
6201,1,21,right,male,5,,29,GoodOther.bmp,P.bmp,Goodother,good,other,Yes,m,,,,,0,0
6201,1,21,right,male,5,,30,BadSelf.bmp,D.bmp,Badself,bad,self,Yes,m,,,,,0,0
6201,1,21,right,male,5,,31,GoodOther.bmp,P.bmp,Goodother,good,other,Yes,m,,,,,0,0
6201,1,21,right,male,5,,32,NormalSelf.bmp,Tra.bmp,Normalself,normal,self,Yes,m,,,,m,1,529
6201,1,21,right,male,5,,33,GoodSelf.bmp,S.bmp,Normalother,good,self,No,k,,,,k,1,461
6201,1,21,right,male,5,,34,BadOther.bmp,D.bmp,Badself,bad,other,No,k,,,,m,0,657
6201,1,21,right,male,5,,35,BadSelf.bmp,P.bmp,Goodother,bad,self,No,k,,,,k,1,437
6201,1,21,right,male,5,,36,GoodOther.bmp,Tra.bmp,Normalself,good,other,No,k,,,,k,1,833
6201,1,21,right,male,5,,37,GoodOther.bmp,P.bmp,Goodother,good,other,Yes,m,,,,m,1,614
6201,1,21,right,male,5,,38,NormalOther.bmp,S.bmp,Normalother,normal,other,Yes,m,,,,k,0,834
6201,1,21,right,male,5,,39,NormalSelf.bmp,T.bmp,Badother,normal,self,No,k,,,,,0,0
6201,1,21,right,male,5,,40,BadOther.bmp,S.bmp,Normalother,bad,other,No,k,,,,,0,0
6201,1,21,right,male,5,,41,NormalOther.bmp,S.bmp,Normalother,normal,other,Yes,m,,,,k,0,671
6201,1,21,right,male,5,,42,NormalSelf.bmp,Tra.bmp,Normalself,normal,self,Yes,m,,,,,0,0
6201,1,21,right,male,5,,43,GoodSelf.bmp,D.bmp,Badself,good,self,No,k,,,,,0,0
6201,1,21,right,male,5,,44,BadSelf.bmp,Tra.bmp,Normalself,bad,self,No,k,,,,k,1,331
6201,1,21,right,male,5,,45,GoodOther.bmp,C.bmp,Goodself,good,other,No,k,,,,,0,0
6201,1,21,right,male,5,,46,NormalOther.bmp,T.bmp,Badother,normal,other,No,k,,,,,0,0
6201,1,21,right,male,5,,47,GoodOther.bmp,D.bmp,Badself,good,other,No,k,,,,,0,0
6201,1,21,right,male,5,,48,NormalOther.bmp,C.bmp,Goodself,normal,other,No,k,,,,,0,0
6201,1,21,right,male,5,,49,GoodOther.bmp,S.bmp,Normalother,good,other,No,k,,,,,0,0
6201,1,21,right,male,5,,50,BadSelf.bmp,S.bmp,Normalother,bad,self,No,k,,,,k,1,604
6201,1,21,right,male,5,,51,BadOther.bmp,P.bmp,Goodother,bad,other,No,k,,,,k,1,536
6201,1,21,right,male,5,,52,GoodSelf.bmp,Tra.bmp,Normalself,good,self,No,k,,,,k,1,812
6201,1,21,right,male,5,,53,NormalOther.bmp,D.bmp,Badself,normal,other,No,k,,,,k,1,704
6201,1,21,right,male,5,,54,BadSelf.bmp,D.bmp,Badself,bad,self,Yes,m,,,,m,1,645
6201,1,21,right,male,5,,55,GoodSelf.bmp,C.bmp,Goodself,good,self,Yes,m,,,,m,1,273
6201,1,21,right,male,5,,56,GoodSelf.bmp,P.bmp,Goodother,good,self,No,k,,,,k,1,381
6201,1,21,right,male,5,,57,BadOther.bmp,C.bmp,Goodself,bad,other,No,k,,,,k,1,561
6201,1,21,right,male,5,,58,BadOther.bmp,T.bmp,Badother,bad,other,Yes,m,,,,m,1,598
6201,1,21,right,male,5,,59,BadOther.bmp,T.bmp,Badother,bad,other,Yes,m,,,,,0,0
6201,1,21,right,male,5,,60,NormalSelf.bmp,Tra.bmp,Normalself,normal,self,Yes,m,,,,m,1,901
6201,1,21,right,male,5,,61,GoodSelf.bmp,C.bmp,Goodself,good,self,Yes,m,,,,m,1,305
6201,1,21,right,male,5,,62,BadOther.bmp,C.bmp,Goodself,bad,other,No,k,,,,k,1,573
6201,1,21,right,male,5,,63,BadSelf.bmp,P.bmp,Goodother,bad,self,No,k,,,,k,1,762
6201,1,21,right,male,5,,64,NormalOther.bmp,P.bmp,Goodother,normal,other,No,k,,,,k,1,710
6201,1,21,right,male,5,,65,BadSelf.bmp,D.bmp,Badself,bad,self,Yes,m,,,,k,0,954
6201,1,21,right,male,5,,66,BadSelf.bmp,C.bmp,Goodself,bad,self,No,k,,,,m,0,534
6201,1,21,right,male,5,,67,GoodOther.bmp,Tra.bmp,Normalself,good,other,No,k,,,,k,1,723
6201,1,21,right,male,5,,68,NormalSelf.bmp,Tra.bmp,Normalself,normal,self,Yes,m,,,,,0,0
6201,1,21,right,male,5,,69,NormalOther.bmp,S.bmp,Normalother,normal,other,Yes,m,,,,,0,0
6201,1,21,right,male,5,,70,GoodOther.bmp,P.bmp,Goodother,good,other,Yes,m,,,,k,0,591
6201,1,21,right,male,5,,71,NormalOther.bmp,S.bmp,Normalother,normal,other,Yes,m,,,,k,0,699
6201,1,21,right,male,5,,72,BadSelf.bmp,Tra.bmp,Normalself,bad,self,No,k,,,,k,1,624
6201,1,21,right,male,5,,73,BadOther.bmp,S.bmp,Normalother,bad,other,No,k,,,,k,1,708
6201,1,21,right,male,5,,74,GoodSelf.bmp,C.bmp,Goodself,good,self,Yes,m,,,,m,1,384
6201,1,21,right,male,5,,75,BadSelf.bmp,S.bmp,Normalother,bad,self,No,k,,,,k,1,516
6201,1,21,right,male,5,,76,BadSelf.bmp,D.bmp,Badself,bad,self,Yes,m,,,,m,1,336
6201,1,21,right,male,5,,77,NormalSelf.bmp,Tra.bmp,Normalself,normal,self,Yes,m,,,,k,0,740
6201,1,21,right,male,5,,78,NormalOther.bmp,S.bmp,Normalother,normal,other,Yes,m,,,,m,1,704
6201,1,21,right,male,5,,79,GoodSelf.bmp,T.bmp,Badother,good,self,No,k,,,,k,1,404
6201,1,21,right,male,5,,80,BadOther.bmp,T.bmp,Badother,bad,other,Yes,m,,,,k,0,977
6201,1,21,right,male,5,,81,GoodSelf.bmp,C.bmp,Goodself,good,self,Yes,m,,,,m,1,565
6201,1,21,right,male,5,,82,NormalSelf.bmp,S.bmp,Normalother,normal,self,No,k,,,,k,1,769
6201,1,21,right,male,5,,83,NormalSelf.bmp,C.bmp,Goodself,normal,self,No,k,,,,m,0,741
6201,1,21,right,male,5,,84,NormalSelf.bmp,Tra.bmp,Normalself,normal,self,Yes,m,,,,m,1,385
6201,1,21,right,male,5,,85,GoodOther.bmp,T.bmp,Badother,good,other,No,k,,,,k,1,422
6201,1,21,right,male,5,,86,BadOther.bmp,P.bmp,Goodother,bad,other,No,k,,,,k,1,866
6201,1,21,right,male,5,,87,NormalSelf.bmp,P.bmp,Goodother,normal,self,No,k,,,,k,1,1030
6201,1,21,right,male,5,,88,NormalOther.bmp,S.bmp,Normalother,normal,other,Yes,m,,,,,0,0
6201,1,21,right,male,5,,89,NormalSelf.bmp,Tra.bmp,Normalself,normal,self,Yes,m,,,,m,1,687
6201,1,21,right,male,5,,90,BadSelf.bmp,D.bmp,Badself,bad,self,Yes,m,,,,m,1,707
6201,1,21,right,male,5,,91,BadOther.bmp,T.bmp,Badother,bad,other,Yes,m,,,,m,1,734
6201,1,21,right,male,5,,92,BadSelf.bmp,D.bmp,Badself,bad,self,Yes,m,,,,m,1,842
6201,1,21,right,male,5,,93,NormalSelf.bmp,Tra.bmp,Normalself,normal,self,Yes,m,,,,m,1,295
6201,1,21,right,male,5,,94,BadOther.bmp,T.bmp,Badother,bad,other,Yes,m,,,,m,1,403
6201,1,21,right,male,5,,95,GoodOther.bmp,P.bmp,Goodother,good,other,Yes,m,,,,m,1,351
6201,1,21,right,male,5,,96,NormalOther.bmp,T.bmp,Badother,normal,other,No,k,,,,m,0,539
6201,1,21,right,male,5,,97,NormalOther.bmp,C.bmp,Goodself,normal,other,No,k,,,,k,1,776
6201,1,21,right,male,5,,98,GoodSelf.bmp,D.bmp,Badself,good,self,No,k,,,,k,1,540
6201,1,21,right,male,5,,99,GoodSelf.bmp,S.bmp,Normalother,good,self,No,k,,,,k,1,496
6201,1,21,right,male,5,,100,NormalOther.bmp,S.bmp,Normalother,normal,other,Yes,m,,,,,0,0
6201,1,21,right,male,5,,101,GoodSelf.bmp,C.bmp,Goodself,good,self,Yes,m,,,,m,1,368
6201,1,21,right,male,5,,102,GoodOther.bmp,S.bmp,Normalother,good,other,No,k,,,,m,0,349
6201,1,21,right,male,5,,103,GoodOther.bmp,D.bmp,Badself,good,other,No,k,,,,k,1,841
6201,1,21,right,male,5,,104,GoodSelf.bmp,P.bmp,Goodother,good,self,No,k,,,,m,0,501
6201,1,21,right,male,5,,105,GoodOther.bmp,P.bmp,Goodother,good,other,Yes,m,,,,m,1,473
6201,1,21,right,male,5,,106,NormalOther.bmp,Tra.bmp,Normalself,normal,other,No,k,,,,k,1,773
6201,1,21,right,male,5,,107,BadOther.bmp,T.bmp,Badother,bad,other,Yes,m,,,,m,1,761
6201,1,21,right,male,5,,108,BadSelf.bmp,T.bmp,Badother,bad,self,No,k,,,,k,1,541
6201,1,21,right,male,5,,109,NormalOther.bmp,D.bmp,Badself,normal,other,No,k,,,,k,1,737
6201,1,21,right,male,5,,110,GoodOther.bmp,P.bmp,Goodother,good,other,Yes,m,,,,m,1,429
6201,1,21,right,male,5,,111,BadOther.bmp,D.bmp,Badself,bad,other,No,k,,,,k,1,818
6201,1,21,right,male,5,,112,BadOther.bmp,T.bmp,Badother,bad,other,Yes,m,,,,m,1,966
6201,1,21,right,male,5,,113,NormalSelf.bmp,D.bmp,Badself,normal,self,No,k,,,,k,1,610
6201,1,21,right,male,5,,114,GoodOther.bmp,C.bmp,Goodself,good,other,No,k,,,,k,1,766
6201,1,21,right,male,5,,115,GoodSelf.bmp,Tra.bmp,Normalself,good,self,No,k,,,,k,1,619
6201,1,21,right,male,5,,116,GoodSelf.bmp,C.bmp,Goodself,good,self,Yes,m,,,,k,0,439
6201,1,21,right,male,5,,117,GoodOther.bmp,P.bmp,Goodother,good,other,Yes,m,,,,m,1,523
6201,1,21,right,male,5,,118,NormalSelf.bmp,T.bmp,Badother,normal,self,No,k,,,,k,1,551
6201,1,21,right,male,5,,119,BadSelf.bmp,D.bmp,Badself,bad,self,Yes,m,,,,m,1,484
6201,1,21,right,male,5,,120,BadOther.bmp,Tra.bmp,Normalself,bad,other,No,k,,,,k,1,728
6201,1,21,right,male,6,,1,NormalOther.bmp,D.bmp,Badself,normal,other,No,k,,,,,0,0
6201,1,21,right,male,6,,2,BadSelf.bmp,D.bmp,Badself,bad,self,Yes,m,,,,,0,0
6201,1,21,right,male,6,,3,GoodOther.bmp,P.bmp,Goodother,good,other,Yes,m,,,,,0,0
6201,1,21,right,male,6,,4,NormalOther.bmp,S.bmp,Normalother,normal,other,Yes,m,,,,k,0,812
6201,1,21,right,male,6,,5,BadSelf.bmp,C.bmp,Goodself,bad,self,No,k,,,,k,1,689
6201,1,21,right,male,6,,6,NormalOther.bmp,T.bmp,Badother,normal,other,No,k,,,,k,1,413
6201,1,21,right,male,6,,7,BadOther.bmp,T.bmp,Badother,bad,other,Yes,m,,,,,0,0
6201,1,21,right,male,6,,8,NormalSelf.bmp,C.bmp,Goodself,normal,self,No,k,,,,,0,0
6201,1,21,right,male,6,,9,NormalOther.bmp,Tra.bmp,Normalself,normal,other,No,k,,,,,0,0
6201,1,21,right,male,6,,10,GoodOther.bmp,S.bmp,Normalother,good,other,No,k,,,,k,1,766
6201,1,21,right,male,6,,11,NormalSelf.bmp,P.bmp,Goodother,normal,self,No,k,,,,k,1,706
6201,1,21,right,male,6,,12,NormalOther.bmp,S.bmp,Normalother,normal,other,Yes,m,,,,k,0,278
6201,1,21,right,male,6,,13,BadOther.bmp,T.bmp,Badother,bad,other,Yes,m,,,,,0,0
6201,1,21,right,male,6,,14,BadOther.bmp,Tra.bmp,Normalself,bad,other,No,k,,,,,0,0
6201,1,21,right,male,6,,15,GoodSelf.bmp,P.bmp,Goodother,good,self,No,k,,,,,0,0
6201,1,21,right,male,6,,16,BadSelf.bmp,D.bmp,Badself,bad,self,Yes,m,,,,,0,0
6201,1,21,right,male,6,,17,BadOther.bmp,T.bmp,Badother,bad,other,Yes,m,,,,k,0,994
6201,1,21,right,male,6,,18,GoodOther.bmp,P.bmp,Goodother,good,other,Yes,m,,,,m,1,759
6201,1,21,right,male,6,,19,GoodOther.bmp,P.bmp,Goodother,good,other,Yes,m,,,,m,1,467
6201,1,21,right,male,6,,20,GoodSelf.bmp,Tra.bmp,Normalself,good,self,No,k,,,,k,1,479
6201,1,21,right,male,6,,21,GoodOther.bmp,C.bmp,Goodself,good,other,No,k,,,,,0,0
6201,1,21,right,male,6,,22,BadOther.bmp,T.bmp,Badother,bad,other,Yes,m,,,,m,1,199
6201,1,21,right,male,6,,23,NormalOther.bmp,P.bmp,Goodother,normal,other,No,k,,,,k,1,772
6201,1,21,right,male,6,,24,BadSelf.bmp,D.bmp,Badself,bad,self,Yes,m,,,,m,1,360
6201,1,21,right,male,6,,25,BadSelf.bmp,Tra.bmp,Normalself,bad,self,No,k,,,,k,1,628
6201,1,21,right,male,6,,26,NormalSelf.bmp,Tra.bmp,Normalself,normal,self,Yes,m,,,,m,1,584
6201,1,21,right,male,6,,27,GoodOther.bmp,P.bmp,Goodother,good,other,Yes,m,,,,m,1,773
6201,1,21,right,male,6,,28,GoodOther.bmp,D.bmp,Badself,good,other,No,k,,,,m,0,457
6201,1,21,right,male,6,,29,NormalSelf.bmp,Tra.bmp,Normalself,normal,self,Yes,m,,,,m,1,844
6201,1,21,right,male,6,,30,BadSelf.bmp,D.bmp,Badself,bad,self,Yes,m,,,,k,0,752
6201,1,21,right,male,6,,31,GoodSelf.bmp,C.bmp,Goodself,good,self,Yes,m,,,,m,1,117
6201,1,21,right,male,6,,32,GoodSelf.bmp,C.bmp,Goodself,good,self,Yes,m,,,,,0,0
6201,1,21,right,male,6,,33,BadSelf.bmp,T.bmp,Badother,bad,self,No,k,,,,k,1,509
6201,1,21,right,male,6,,34,GoodOther.bmp,P.bmp,Goodother,good,other,Yes,m,,,,m,1,689
6201,1,21,right,male,6,,35,BadSelf.bmp,D.bmp,Badself,bad,self,Yes,m,,,,m,1,933
6201,1,21,right,male,6,,36,BadSelf.bmp,P.bmp,Goodother,bad,self,No,k,,,,k,1,562
6201,1,21,right,male,6,,37,GoodOther.bmp,Tra.bmp,Normalself,good,other,No,k,,,,k,1,694
6201,1,21,right,male,6,,38,NormalOther.bmp,S.bmp,Normalother,normal,other,Yes,m,,,,m,1,338
6201,1,21,right,male,6,,39,BadOther.bmp,P.bmp,Goodother,bad,other,No,k,,,,,0,0
6201,1,21,right,male,6,,40,NormalSelf.bmp,Tra.bmp,Normalself,normal,self,Yes,m,,,,m,1,387
6201,1,21,right,male,6,,41,NormalSelf.bmp,T.bmp,Badother,normal,self,No,k,,,,k,1,975
6201,1,21,right,male,6,,42,BadOther.bmp,D.bmp,Badself,bad,other,No,k,,,,,0,0
6201,1,21,right,male,6,,43,GoodSelf.bmp,C.bmp,Goodself,good,self,Yes,m,,,,m,1,743
6201,1,21,right,male,6,,44,BadSelf.bmp,S.bmp,Normalother,bad,self,No,k,,,,k,1,467
6201,1,21,right,male,6,,45,GoodSelf.bmp,C.bmp,Goodself,good,self,Yes,m,,,,,0,0
6201,1,21,right,male,6,,46,NormalSelf.bmp,D.bmp,Badself,normal,self,No,k,,,,k,1,539
6201,1,21,right,male,6,,47,NormalOther.bmp,C.bmp,Goodself,normal,other,No,k,,,,k,1,519
6201,1,21,right,male,6,,48,NormalSelf.bmp,Tra.bmp,Normalself,normal,self,Yes,m,,,,m,1,899
6201,1,21,right,male,6,,49,NormalSelf.bmp,S.bmp,Normalother,normal,self,No,k,,,,k,1,376
6201,1,21,right,male,6,,50,GoodSelf.bmp,S.bmp,Normalother,good,self,No,k,,,,m,0,268
6201,1,21,right,male,6,,51,BadOther.bmp,T.bmp,Badother,bad,other,Yes,m,,,,k,0,616
6201,1,21,right,male,6,,52,BadOther.bmp,S.bmp,Normalother,bad,other,No,k,,,,m,0,628
6201,1,21,right,male,6,,53,NormalOther.bmp,S.bmp,Normalother,normal,other,Yes,m,,,,m,1,289
6201,1,21,right,male,6,,54,NormalOther.bmp,S.bmp,Normalother,normal,other,Yes,m,,,,m,1,429
6201,1,21,right,male,6,,55,GoodSelf.bmp,T.bmp,Badother,good,self,No,k,,,,k,1,601
6201,1,21,right,male,6,,56,GoodSelf.bmp,D.bmp,Badself,good,self,No,k,,,,k,1,597
6201,1,21,right,male,6,,57,BadOther.bmp,C.bmp,Goodself,bad,other,No,k,,,,k,1,978
6201,1,21,right,male,6,,58,NormalSelf.bmp,Tra.bmp,Normalself,normal,self,Yes,m,,,,k,0,742
6201,1,21,right,male,6,,59,GoodSelf.bmp,C.bmp,Goodself,good,self,Yes,m,,,,m,1,401
6201,1,21,right,male,6,,60,GoodOther.bmp,T.bmp,Badother,good,other,No,k,,,,k,1,549
6201,1,21,right,male,6,,61,GoodSelf.bmp,T.bmp,Badother,good,self,No,k,,,,m,0,937
6201,1,21,right,male,6,,62,NormalSelf.bmp,T.bmp,Badother,normal,self,No,k,,,,k,1,502
6201,1,21,right,male,6,,63,BadSelf.bmp,P.bmp,Goodother,bad,self,No,k,,,,m,0,706
6201,1,21,right,male,6,,64,BadSelf.bmp,D.bmp,Badself,bad,self,Yes,m,,,,m,1,502
6201,1,21,right,male,6,,65,GoodOther.bmp,S.bmp,Normalother,good,other,No,k,,,,k,1,594
6201,1,21,right,male,6,,66,BadSelf.bmp,Tra.bmp,Normalself,bad,self,No,k,,,,k,1,863
6201,1,21,right,male,6,,67,GoodOther.bmp,P.bmp,Goodother,good,other,Yes,m,,,,m,1,435
6201,1,21,right,male,6,,68,BadSelf.bmp,D.bmp,Badself,bad,self,Yes,m,,,,,0,0
6201,1,21,right,male,6,,69,GoodOther.bmp,P.bmp,Goodother,good,other,Yes,m,,,,m,1,563
6201,1,21,right,male,6,,70,GoodSelf.bmp,D.bmp,Badself,good,self,No,k,,,,k,1,1000
6201,1,21,right,male,6,,71,GoodSelf.bmp,C.bmp,Goodself,good,self,Yes,m,,,,m,1,124
6201,1,21,right,male,6,,72,GoodSelf.bmp,C.bmp,Goodself,good,self,Yes,m,,,,m,1,488
6201,1,21,right,male,6,,73,GoodSelf.bmp,P.bmp,Goodother,good,self,No,k,,,,k,1,372
6201,1,21,right,male,6,,74,GoodOther.bmp,Tra.bmp,Normalself,good,other,No,k,,,,k,1,919
6201,1,21,right,male,6,,75,NormalOther.bmp,T.bmp,Badother,normal,other,No,k,,,,k,1,740
6201,1,21,right,male,6,,76,NormalOther.bmp,Tra.bmp,Normalself,normal,other,No,k,,,,,0,0
6201,1,21,right,male,6,,77,NormalOther.bmp,D.bmp,Badself,normal,other,No,k,,,,k,1,916
6201,1,21,right,male,6,,78,GoodOther.bmp,P.bmp,Goodother,good,other,Yes,m,,,,m,1,432
6201,1,21,right,male,6,,79,GoodOther.bmp,C.bmp,Goodself,good,other,No,k,,,,k,1,581
6201,1,21,right,male,6,,80,GoodOther.bmp,T.bmp,Badother,good,other,No,k,,,,k,1,849
6201,1,21,right,male,6,,81,NormalOther.bmp,S.bmp,Normalother,normal,other,Yes,m,,,,k,0,59
6201,1,21,right,male,6,,82,BadSelf.bmp,D.bmp,Badself,bad,self,Yes,m,,,,k,0,801
6201,1,21,right,male,6,,83,GoodSelf.bmp,S.bmp,Normalother,good,self,No,k,,,,k,1,958
6201,1,21,right,male,6,,84,BadOther.bmp,D.bmp,Badself,bad,other,No,k,,,,k,1,634
6201,1,21,right,male,6,,85,BadSelf.bmp,D.bmp,Badself,bad,self,Yes,m,,,,m,1,422
6201,1,21,right,male,6,,86,NormalSelf.bmp,P.bmp,Goodother,normal,self,No,k,,,,k,1,482
6201,1,21,right,male,6,,87,NormalOther.bmp,S.bmp,Normalother,normal,other,Yes,m,,,,,0,0
6201,1,21,right,male,6,,88,GoodSelf.bmp,C.bmp,Goodself,good,self,Yes,m,,,,m,1,507
6201,1,21,right,male,6,,89,BadOther.bmp,T.bmp,Badother,bad,other,Yes,m,,,,m,1,710
6201,1,21,right,male,6,,90,NormalOther.bmp,P.bmp,Goodother,normal,other,No,k,,,,k,1,794
6201,1,21,right,male,6,,91,BadOther.bmp,Tra.bmp,Normalself,bad,other,No,k,,,,k,1,910
6201,1,21,right,male,6,,92,NormalOther.bmp,C.bmp,Goodself,normal,other,No,k,,,,k,1,795
6201,1,21,right,male,6,,93,NormalSelf.bmp,Tra.bmp,Normalself,normal,self,Yes,m,,,,k,0,255
6201,1,21,right,male,6,,94,GoodSelf.bmp,Tra.bmp,Normalself,good,self,No,k,,,,k,1,835
6201,1,21,right,male,6,,95,NormalOther.bmp,S.bmp,Normalother,normal,other,Yes,m,,,,k,0,607
6201,1,21,right,male,6,,96,BadOther.bmp,C.bmp,Goodself,bad,other,No,k,,,,k,1,996
6201,1,21,right,male,6,,97,BadSelf.bmp,D.bmp,Badself,bad,self,Yes,m,,,,m,1,608
6201,1,21,right,male,6,,98,BadOther.bmp,T.bmp,Badother,bad,other,Yes,m,,,,m,1,868
6201,1,21,right,male,6,,99,NormalOther.bmp,S.bmp,Normalother,normal,other,Yes,m,,,,,0,0
6201,1,21,right,male,6,,100,GoodOther.bmp,P.bmp,Goodother,good,other,Yes,m,,,,m,1,708
6201,1,21,right,male,6,,101,GoodSelf.bmp,C.bmp,Goodself,good,self,Yes,m,,,,m,1,945
6201,1,21,right,male,6,,102,BadSelf.bmp,T.bmp,Badother,bad,self,No,k,,,,k,1,621
6201,1,21,right,male,6,,103,BadOther.bmp,P.bmp,Goodother,bad,other,No,k,,,,,0,0
6201,1,21,right,male,6,,104,NormalSelf.bmp,S.bmp,Normalother,normal,self,No,k,,,,k,1,700
6201,1,21,right,male,6,,105,BadOther.bmp,T.bmp,Badother,bad,other,Yes,m,,,,k,0,665
6201,1,21,right,male,6,,106,NormalOther.bmp,S.bmp,Normalother,normal,other,Yes,m,,,,m,1,765
6201,1,21,right,male,6,,107,NormalSelf.bmp,Tra.bmp,Normalself,normal,self,Yes,m,,,,m,1,425
6201,1,21,right,male,6,,108,BadSelf.bmp,S.bmp,Normalother,bad,self,No,k,,,,k,1,645
6201,1,21,right,male,6,,109,NormalSelf.bmp,D.bmp,Badself,normal,self,No,k,,,,,0,0
6201,1,21,right,male,6,,110,BadOther.bmp,S.bmp,Normalother,bad,other,No,k,,,,,0,0
6201,1,21,right,male,6,,111,BadOther.bmp,T.bmp,Badother,bad,other,Yes,m,,,,,0,0
6201,1,21,right,male,6,,112,GoodOther.bmp,P.bmp,Goodother,good,other,Yes,m,,,,m,1,470
6201,1,21,right,male,6,,113,NormalSelf.bmp,Tra.bmp,Normalself,normal,self,Yes,m,,,,m,1,715
6201,1,21,right,male,6,,114,NormalSelf.bmp,C.bmp,Goodself,normal,self,No,k,,,,k,1,503
6201,1,21,right,male,6,,115,NormalSelf.bmp,Tra.bmp,Normalself,normal,self,Yes,m,,,,m,1,347
6201,1,21,right,male,6,,116,NormalSelf.bmp,Tra.bmp,Normalself,normal,self,Yes,m,,,,m,1,391
6201,1,21,right,male,6,,117,BadSelf.bmp,C.bmp,Goodself,bad,self,No,k,,,,m,0,211
6201,1,21,right,male,6,,118,GoodSelf.bmp,C.bmp,Goodself,good,self,Yes,m,,,,,0,0
6201,1,21,right,male,6,,119,GoodOther.bmp,D.bmp,Badself,good,other,No,k,,,,k,1,539
6201,1,21,right,male,6,,120,BadOther.bmp,T.bmp,Badother,bad,other,Yes,m,,,,k,0,759
6201,1,21,right,male,7,,1,NormalSelf.bmp,Tra.bmp,Normalself,normal,self,Yes,m,,,,m,1,671
6201,1,21,right,male,7,,2,GoodSelf.bmp,P.bmp,Goodother,good,self,No,k,,,,k,1,707
6201,1,21,right,male,7,,3,BadSelf.bmp,D.bmp,Badself,bad,self,Yes,m,,,,,0,0
6201,1,21,right,male,7,,4,BadSelf.bmp,D.bmp,Badself,bad,self,Yes,m,,,,m,1,932
6201,1,21,right,male,7,,5,NormalSelf.bmp,C.bmp,Goodself,normal,self,No,k,,,,k,1,448
6201,1,21,right,male,7,,6,NormalOther.bmp,S.bmp,Normalother,normal,other,Yes,m,,,,m,1,948
6201,1,21,right,male,7,,7,BadOther.bmp,T.bmp,Badother,bad,other,Yes,m,,,,k,0,799
6201,1,21,right,male,7,,8,GoodOther.bmp,P.bmp,Goodother,good,other,Yes,m,,,,m,1,332
6201,1,21,right,male,7,,9,BadSelf.bmp,T.bmp,Badother,bad,self,No,k,,,,m,0,320
6201,1,21,right,male,7,,10,BadSelf.bmp,C.bmp,Goodself,bad,self,No,k,,,,m,0,332
6201,1,21,right,male,7,,11,GoodOther.bmp,P.bmp,Goodother,good,other,Yes,m,,,,m,1,640
6201,1,21,right,male,7,,12,NormalSelf.bmp,Tra.bmp,Normalself,normal,self,Yes,m,,,,m,1,429
6201,1,21,right,male,7,,13,BadSelf.bmp,Tra.bmp,Normalself,bad,self,No,k,,,,k,1,913
6201,1,21,right,male,7,,14,GoodSelf.bmp,C.bmp,Goodself,good,self,Yes,m,,,,,0,0
6201,1,21,right,male,7,,15,GoodSelf.bmp,S.bmp,Normalother,good,self,No,k,,,,k,1,737
6201,1,21,right,male,7,,16,GoodOther.bmp,P.bmp,Goodother,good,other,Yes,m,,,,m,1,374
6201,1,21,right,male,7,,17,BadSelf.bmp,S.bmp,Normalother,bad,self,No,k,,,,k,1,642
6201,1,21,right,male,7,,18,NormalSelf.bmp,S.bmp,Normalother,normal,self,No,k,,,,k,1,462
6201,1,21,right,male,7,,19,NormalOther.bmp,S.bmp,Normalother,normal,other,Yes,m,,,,,0,0
6201,1,21,right,male,7,,20,NormalSelf.bmp,Tra.bmp,Normalself,normal,self,Yes,m,,,,m,1,997
6201,1,21,right,male,7,,21,BadOther.bmp,T.bmp,Badother,bad,other,Yes,m,,,,m,1,515
6201,1,21,right,male,7,,22,NormalOther.bmp,S.bmp,Normalother,normal,other,Yes,m,,,,,0,0
6201,1,21,right,male,7,,23,BadOther.bmp,Tra.bmp,Normalself,bad,other,No,k,,,,k,1,834
6201,1,21,right,male,7,,24,NormalOther.bmp,S.bmp,Normalother,normal,other,Yes,m,,,,m,1,502
6201,1,21,right,male,7,,25,NormalSelf.bmp,Tra.bmp,Normalself,normal,self,Yes,m,,,,m,1,947
6201,1,21,right,male,7,,26,BadSelf.bmp,D.bmp,Badself,bad,self,Yes,m,,,,m,1,343
6201,1,21,right,male,7,,27,GoodSelf.bmp,C.bmp,Goodself,good,self,Yes,m,,,,m,1,659
6201,1,21,right,male,7,,28,GoodOther.bmp,P.bmp,Goodother,good,other,Yes,m,,,,m,1,367
6201,1,21,right,male,7,,29,BadOther.bmp,P.bmp,Goodother,bad,other,No,k,,,,k,1,812
6201,1,21,right,male,7,,30,NormalOther.bmp,P.bmp,Goodother,normal,other,No,k,,,,k,1,832
6201,1,21,right,male,7,,31,GoodSelf.bmp,D.bmp,Badself,good,self,No,k,,,,k,1,684
6201,1,21,right,male,7,,32,BadOther.bmp,T.bmp,Badother,bad,other,Yes,m,,,,,0,0
6201,1,21,right,male,7,,33,NormalSelf.bmp,Tra.bmp,Normalself,normal,self,Yes,m,,,,m,1,861
6201,1,21,right,male,7,,34,BadOther.bmp,T.bmp,Badother,bad,other,Yes,m,,,,,0,0
6201,1,21,right,male,7,,35,BadOther.bmp,S.bmp,Normalother,bad,other,No,k,,,,k,1,789
6201,1,21,right,male,7,,36,GoodSelf.bmp,Tra.bmp,Normalself,good,self,No,k,,,,m,0,649
6201,1,21,right,male,7,,37,GoodOther.bmp,Tra.bmp,Normalself,good,other,No,k,,,,k,1,557
6201,1,21,right,male,7,,38,NormalOther.bmp,S.bmp,Normalother,normal,other,Yes,m,,,,,0,0
6201,1,21,right,male,7,,39,BadOther.bmp,C.bmp,Goodself,bad,other,No,k,,,,k,1,653
6201,1,21,right,male,7,,40,NormalOther.bmp,C.bmp,Goodself,normal,other,No,k,,,,k,1,705
6201,1,21,right,male,7,,41,GoodOther.bmp,S.bmp,Normalother,good,other,No,k,,,,,0,0
6201,1,21,right,male,7,,42,BadOther.bmp,T.bmp,Badother,bad,other,Yes,m,,,,,0,0
6201,1,21,right,male,7,,43,BadSelf.bmp,D.bmp,Badself,bad,self,Yes,m,,,,,0,0
6201,1,21,right,male,7,,44,NormalOther.bmp,T.bmp,Badother,normal,other,No,k,,,,,0,0
6201,1,21,right,male,7,,45,NormalSelf.bmp,P.bmp,Goodother,normal,self,No,k,,,,,0,0
6201,1,21,right,male,7,,46,GoodOther.bmp,D.bmp,Badself,good,other,No,k,,,,k,1,611
6201,1,21,right,male,7,,47,GoodSelf.bmp,C.bmp,Goodself,good,self,Yes,m,,,,m,1,319
6201,1,21,right,male,7,,48,NormalOther.bmp,Tra.bmp,Normalself,normal,other,No,k,,,,k,1,699
6201,1,21,right,male,7,,49,NormalOther.bmp,D.bmp,Badself,normal,other,No,k,,,,m,0,815
6201,1,21,right,male,7,,50,BadSelf.bmp,P.bmp,Goodother,bad,self,No,k,,,,k,1,859
6201,1,21,right,male,7,,51,GoodSelf.bmp,C.bmp,Goodself,good,self,Yes,m,,,,m,1,536
6201,1,21,right,male,7,,52,GoodOther.bmp,C.bmp,Goodself,good,other,No,k,,,,m,0,660
6201,1,21,right,male,7,,53,GoodOther.bmp,T.bmp,Badother,good,other,No,k,,,,k,1,559
6201,1,21,right,male,7,,54,BadOther.bmp,D.bmp,Badself,bad,other,No,k,,,,k,1,691
6201,1,21,right,male,7,,55,BadSelf.bmp,D.bmp,Badself,bad,self,Yes,m,,,,k,0,728
6201,1,21,right,male,7,,56,NormalSelf.bmp,T.bmp,Badother,normal,self,No,k,,,,k,1,500
6201,1,21,right,male,7,,57,GoodSelf.bmp,C.bmp,Goodself,good,self,Yes,m,,,,m,1,664
6201,1,21,right,male,7,,58,NormalSelf.bmp,D.bmp,Badself,normal,self,No,k,,,,k,1,604
6201,1,21,right,male,7,,59,GoodOther.bmp,P.bmp,Goodother,good,other,Yes,m,,,,m,1,1089
6201,1,21,right,male,7,,60,GoodSelf.bmp,T.bmp,Badother,good,self,No,k,,,,k,1,421
6201,1,21,right,male,7,,61,BadOther.bmp,S.bmp,Normalother,bad,other,No,k,,,,,0,0
6201,1,21,right,male,7,,62,BadSelf.bmp,D.bmp,Badself,bad,self,Yes,m,,,,m,1,1093
6201,1,21,right,male,7,,63,GoodSelf.bmp,S.bmp,Normalother,good,self,No,k,,,,k,1,489
6201,1,21,right,male,7,,64,NormalOther.bmp,T.bmp,Badother,normal,other,No,k,,,,m,0,854
6201,1,21,right,male,7,,65,BadOther.bmp,C.bmp,Goodself,bad,other,No,k,,,,m,0,794
6201,1,21,right,male,7,,66,NormalOther.bmp,S.bmp,Normalother,normal,other,Yes,m,,,,,0,0
6201,1,21,right,male,7,,67,NormalOther.bmp,S.bmp,Normalother,normal,other,Yes,m,,,,k,0,673
6201,1,21,right,male,7,,68,GoodOther.bmp,Tra.bmp,Normalself,good,other,No,k,,,,m,0,598
6201,1,21,right,male,7,,69,NormalOther.bmp,S.bmp,Normalother,normal,other,Yes,m,,,,,0,0
6201,1,21,right,male,7,,70,GoodOther.bmp,P.bmp,Goodother,good,other,Yes,m,,,,m,1,742
6201,1,21,right,male,7,,71,GoodSelf.bmp,C.bmp,Goodself,good,self,Yes,m,,,,m,1,354
6201,1,21,right,male,7,,72,BadSelf.bmp,D.bmp,Badself,bad,self,Yes,m,,,,m,1,1066
6201,1,21,right,male,7,,73,GoodOther.bmp,D.bmp,Badself,good,other,No,k,,,,k,1,675
6201,1,21,right,male,7,,74,GoodOther.bmp,P.bmp,Goodother,good,other,Yes,m,,,,m,1,743
6201,1,21,right,male,7,,75,NormalOther.bmp,P.bmp,Goodother,normal,other,No,k,,,,k,1,627
6201,1,21,right,male,7,,76,BadOther.bmp,T.bmp,Badother,bad,other,Yes,m,,,,m,1,991
6201,1,21,right,male,7,,77,BadOther.bmp,D.bmp,Badself,bad,other,No,k,,,,k,1,620
6201,1,21,right,male,7,,78,BadOther.bmp,T.bmp,Badother,bad,other,Yes,m,,,,m,1,776
6201,1,21,right,male,7,,79,NormalOther.bmp,S.bmp,Normalother,normal,other,Yes,m,,,,k,0,660
6201,1,21,right,male,7,,80,NormalSelf.bmp,Tra.bmp,Normalself,normal,self,Yes,m,,,,m,1,584
6201,1,21,right,male,7,,81,BadOther.bmp,T.bmp,Badother,bad,other,Yes,m,,,,m,1,693
6201,1,21,right,male,7,,82,NormalSelf.bmp,Tra.bmp,Normalself,normal,self,Yes,m,,,,m,1,552
6201,1,21,right,male,7,,83,NormalSelf.bmp,Tra.bmp,Normalself,normal,self,Yes,m,,,,m,1,420
6201,1,21,right,male,7,,84,NormalOther.bmp,D.bmp,Badself,normal,other,No,k,,,,k,1,792
6201,1,21,right,male,7,,85,BadOther.bmp,Tra.bmp,Normalself,bad,other,No,k,,,,m,0,365
6201,1,21,right,male,7,,86,BadSelf.bmp,D.bmp,Badself,bad,self,Yes,m,,,,m,1,449
6201,1,21,right,male,7,,87,GoodSelf.bmp,P.bmp,Goodother,good,self,No,k,,,,,0,0
6201,1,21,right,male,7,,88,NormalSelf.bmp,S.bmp,Normalother,normal,self,No,k,,,,k,1,969
6201,1,21,right,male,7,,89,GoodOther.bmp,T.bmp,Badother,good,other,No,k,,,,k,1,966
6201,1,21,right,male,7,,90,GoodOther.bmp,P.bmp,Goodother,good,other,Yes,m,,,,,0,0
6201,1,21,right,male,7,,91,GoodSelf.bmp,C.bmp,Goodself,good,self,Yes,m,,,,m,1,814
6201,1,21,right,male,7,,92,GoodOther.bmp,C.bmp,Goodself,good,other,No,k,,,,k,1,938
6201,1,21,right,male,7,,93,NormalOther.bmp,C.bmp,Goodself,normal,other,No,k,,,,k,1,734
6201,1,21,right,male,7,,94,BadOther.bmp,T.bmp,Badother,bad,other,Yes,m,,,,m,1,803
6201,1,21,right,male,7,,95,GoodSelf.bmp,Tra.bmp,Normalself,good,self,No,k,,,,k,1,831
6201,1,21,right,male,7,,96,NormalSelf.bmp,P.bmp,Goodother,normal,self,No,k,,,,,0,0
6201,1,21,right,male,7,,97,GoodSelf.bmp,T.bmp,Badother,good,self,No,k,,,,,0,0
6201,1,21,right,male,7,,98,NormalSelf.bmp,T.bmp,Badother,normal,self,No,k,,,,,0,0
6201,1,21,right,male,7,,99,BadOther.bmp,T.bmp,Badother,bad,other,Yes,m,,,,,0,0
6201,1,21,right,male,7,,100,BadSelf.bmp,C.bmp,Goodself,bad,self,No,k,,,,k,1,723
6201,1,21,right,male,7,,101,GoodSelf.bmp,C.bmp,Goodself,good,self,Yes,m,,,,m,1,335
6201,1,21,right,male,7,,102,BadSelf.bmp,P.bmp,Goodother,bad,self,No,k,,,,k,1,852
6201,1,21,right,male,7,,103,NormalSelf.bmp,Tra.bmp,Normalself,normal,self,Yes,m,,,,m,1,400
6201,1,21,right,male,7,,104,GoodOther.bmp,P.bmp,Goodother,good,other,Yes,m,,,,m,1,996
6201,1,21,right,male,7,,105,GoodSelf.bmp,C.bmp,Goodself,good,self,Yes,m,,,,m,1,344
6201,1,21,right,male,7,,106,BadOther.bmp,P.bmp,Goodother,bad,other,No,k,,,,k,1,860
6201,1,21,right,male,7,,107,BadSelf.bmp,Tra.bmp,Normalself,bad,self,No,k,,,,k,1,873
6201,1,21,right,male,7,,108,NormalSelf.bmp,D.bmp,Badself,normal,self,No,k,,,,m,0,397
6201,1,21,right,male,7,,109,NormalSelf.bmp,C.bmp,Goodself,normal,self,No,k,,,,,0,0
6201,1,21,right,male,7,,110,BadSelf.bmp,D.bmp,Badself,bad,self,Yes,m,,,,m,1,989
6201,1,21,right,male,7,,111,GoodOther.bmp,P.bmp,Goodother,good,other,Yes,m,,,,m,1,514
6201,1,21,right,male,7,,112,BadSelf.bmp,S.bmp,Normalother,bad,self,No,k,,,,k,1,726
6201,1,21,right,male,7,,113,NormalOther.bmp,S.bmp,Normalother,normal,other,Yes,m,,,,,0,0
6201,1,21,right,male,7,,114,GoodSelf.bmp,C.bmp,Goodself,good,self,Yes,m,,,,m,1,613
6201,1,21,right,male,7,,115,GoodSelf.bmp,D.bmp,Badself,good,self,No,k,,,,k,1,546
6201,1,21,right,male,7,,116,NormalSelf.bmp,Tra.bmp,Normalself,normal,self,Yes,m,,,,m,1,374
6201,1,21,right,male,7,,117,BadSelf.bmp,D.bmp,Badself,bad,self,Yes,m,,,,m,1,938
6201,1,21,right,male,7,,118,BadSelf.bmp,T.bmp,Badother,bad,self,No,k,,,,k,1,310
6201,1,21,right,male,7,,119,NormalOther.bmp,Tra.bmp,Normalself,normal,other,No,k,,,,m,0,674
6201,1,21,right,male,7,,120,GoodOther.bmp,S.bmp,Normalother,good,other,No,k,,,,k,1,615
6201,1,21,right,male,8,,1,GoodSelf.bmp,D.bmp,Badself,good,self,No,k,,,,k,1,653
6201,1,21,right,male,8,,2,NormalSelf.bmp,D.bmp,Badself,normal,self,No,k,,,,k,1,810
6201,1,21,right,male,8,,3,NormalSelf.bmp,Tra.bmp,Normalself,normal,self,Yes,m,,,,m,1,822
6201,1,21,right,male,8,,4,NormalOther.bmp,S.bmp,Normalother,normal,other,Yes,m,,,,m,1,554
6201,1,21,right,male,8,,5,NormalSelf.bmp,P.bmp,Goodother,normal,self,No,k,,,,k,1,694
6201,1,21,right,male,8,,6,GoodOther.bmp,C.bmp,Goodself,good,other,No,k,,,,k,1,642
6201,1,21,right,male,8,,7,GoodOther.bmp,T.bmp,Badother,good,other,No,k,,,,k,1,575
6201,1,21,right,male,8,,8,NormalOther.bmp,P.bmp,Goodother,normal,other,No,k,,,,,0,0
6201,1,21,right,male,8,,9,BadOther.bmp,S.bmp,Normalother,bad,other,No,k,,,,k,1,782
6201,1,21,right,male,8,,10,GoodOther.bmp,D.bmp,Badself,good,other,No,k,,,,k,1,522
6201,1,21,right,male,8,,11,NormalOther.bmp,S.bmp,Normalother,normal,other,Yes,m,,,,m,1,567
6201,1,21,right,male,8,,12,BadOther.bmp,Tra.bmp,Normalself,bad,other,No,k,,,,k,1,643
6201,1,21,right,male,8,,13,GoodSelf.bmp,P.bmp,Goodother,good,self,No,k,,,,m,0,847
6201,1,21,right,male,8,,14,BadSelf.bmp,D.bmp,Badself,bad,self,Yes,m,,,,m,1,667
6201,1,21,right,male,8,,15,BadSelf.bmp,C.bmp,Goodself,bad,self,No,k,,,,k,1,360
6201,1,21,right,male,8,,16,NormalOther.bmp,Tra.bmp,Normalself,normal,other,No,k,,,,k,1,540
6201,1,21,right,male,8,,17,BadSelf.bmp,D.bmp,Badself,bad,self,Yes,m,,,,m,1,392
6201,1,21,right,male,8,,18,GoodSelf.bmp,C.bmp,Goodself,good,self,Yes,m,,,,m,1,924
6201,1,21,right,male,8,,19,GoodOther.bmp,P.bmp,Goodother,good,other,Yes,m,,,,,0,0
6201,1,21,right,male,8,,20,NormalOther.bmp,D.bmp,Badself,normal,other,No,k,,,,k,1,789
6201,1,21,right,male,8,,21,GoodOther.bmp,P.bmp,Goodother,good,other,Yes,m,,,,,0,0
6201,1,21,right,male,8,,22,BadOther.bmp,T.bmp,Badother,bad,other,Yes,m,,,,m,1,781
6201,1,21,right,male,8,,23,NormalOther.bmp,S.bmp,Normalother,normal,other,Yes,m,,,,m,1,752
6201,1,21,right,male,8,,24,NormalSelf.bmp,C.bmp,Goodself,normal,self,No,k,,,,k,1,613
6201,1,21,right,male,8,,25,NormalOther.bmp,C.bmp,Goodself,normal,other,No,k,,,,m,0,345
6201,1,21,right,male,8,,26,BadSelf.bmp,T.bmp,Badother,bad,self,No,k,,,,,0,0
6201,1,21,right,male,8,,27,BadOther.bmp,T.bmp,Badother,bad,other,Yes,m,,,,,0,0
6201,1,21,right,male,8,,28,GoodOther.bmp,P.bmp,Goodother,good,other,Yes,m,,,,m,1,670
6201,1,21,right,male,8,,29,NormalSelf.bmp,Tra.bmp,Normalself,normal,self,Yes,m,,,,m,1,682
6201,1,21,right,male,8,,30,BadOther.bmp,T.bmp,Badother,bad,other,Yes,m,,,,m,1,1014
6201,1,21,right,male,8,,31,GoodSelf.bmp,S.bmp,Normalother,good,self,No,k,,,,k,1,906
6201,1,21,right,male,8,,32,GoodSelf.bmp,C.bmp,Goodself,good,self,Yes,m,,,,m,1,287
6201,1,21,right,male,8,,33,GoodSelf.bmp,Tra.bmp,Normalself,good,self,No,k,,,,k,1,307
6201,1,21,right,male,8,,34,NormalSelf.bmp,S.bmp,Normalother,normal,self,No,k,,,,k,1,655
6201,1,21,right,male,8,,35,BadOther.bmp,C.bmp,Goodself,bad,other,No,k,,,,k,1,539
6201,1,21,right,male,8,,36,BadSelf.bmp,Tra.bmp,Normalself,bad,self,No,k,,,,k,1,583
6201,1,21,right,male,8,,37,BadOther.bmp,P.bmp,Goodother,bad,other,No,k,,,,k,1,596
6201,1,21,right,male,8,,38,NormalOther.bmp,T.bmp,Badother,normal,other,No,k,,,,k,1,919
6201,1,21,right,male,8,,39,BadSelf.bmp,D.bmp,Badself,bad,self,Yes,m,,,,m,1,627
6201,1,21,right,male,8,,40,GoodSelf.bmp,C.bmp,Goodself,good,self,Yes,m,,,,m,1,511
6201,1,21,right,male,8,,41,GoodOther.bmp,Tra.bmp,Normalself,good,other,No,k,,,,k,1,402
6201,1,21,right,male,8,,42,NormalSelf.bmp,Tra.bmp,Normalself,normal,self,Yes,m,,,,m,1,518
6201,1,21,right,male,8,,43,NormalSelf.bmp,Tra.bmp,Normalself,normal,self,Yes,m,,,,m,1,530
6201,1,21,right,male,8,,44,BadSelf.bmp,P.bmp,Goodother,bad,self,No,k,,,,k,1,470
6201,1,21,right,male,8,,45,NormalOther.bmp,S.bmp,Normalother,normal,other,Yes,m,,,,m,1,979
6201,1,21,right,male,8,,46,BadOther.bmp,T.bmp,Badother,bad,other,Yes,m,,,,m,1,767
6201,1,21,right,male,8,,47,GoodOther.bmp,P.bmp,Goodother,good,other,Yes,m,,,,m,1,707
6201,1,21,right,male,8,,48,BadSelf.bmp,D.bmp,Badself,bad,self,Yes,m,,,,m,1,927
6201,1,21,right,male,8,,49,GoodOther.bmp,P.bmp,Goodother,good,other,Yes,m,,,,k,0,955
6201,1,21,right,male,8,,50,GoodSelf.bmp,C.bmp,Goodself,good,self,Yes,m,,,,m,1,424
6201,1,21,right,male,8,,51,GoodOther.bmp,S.bmp,Normalother,good,other,No,k,,,,,0,0
6201,1,21,right,male,8,,52,GoodSelf.bmp,C.bmp,Goodself,good,self,Yes,m,,,,m,1,408
6201,1,21,right,male,8,,53,BadOther.bmp,D.bmp,Badself,bad,other,No,k,,,,k,1,779
6201,1,21,right,male,8,,54,NormalSelf.bmp,Tra.bmp,Normalself,normal,self,Yes,m,,,,m,1,448
6201,1,21,right,male,8,,55,NormalSelf.bmp,T.bmp,Badother,normal,self,No,k,,,,k,1,676
6201,1,21,right,male,8,,56,BadSelf.bmp,S.bmp,Normalother,bad,self,No,k,,,,k,1,664
6201,1,21,right,male,8,,57,NormalOther.bmp,S.bmp,Normalother,normal,other,Yes,m,,,,m,1,996
6201,1,21,right,male,8,,58,BadOther.bmp,T.bmp,Badother,bad,other,Yes,m,,,,m,1,673
6201,1,21,right,male,8,,59,BadSelf.bmp,D.bmp,Badself,bad,self,Yes,m,,,,,0,0
6201,1,21,right,male,8,,60,GoodSelf.bmp,T.bmp,Badother,good,self,No,k,,,,,0,0
6201,1,21,right,male,8,,61,GoodSelf.bmp,C.bmp,Goodself,good,self,Yes,m,,,,m,1,477
6201,1,21,right,male,8,,62,BadOther.bmp,T.bmp,Badother,bad,other,Yes,m,,,,k,0,474
6201,1,21,right,male,8,,63,GoodSelf.bmp,C.bmp,Goodself,good,self,Yes,m,,,,m,1,790
6201,1,21,right,male,8,,64,NormalSelf.bmp,D.bmp,Badself,normal,self,No,k,,,,k,1,562
6201,1,21,right,male,8,,65,NormalOther.bmp,D.bmp,Badself,normal,other,No,k,,,,,0,0
6201,1,21,right,male,8,,66,GoodOther.bmp,P.bmp,Goodother,good,other,Yes,m,,,,m,1,386
6201,1,21,right,male,8,,67,BadSelf.bmp,D.bmp,Badself,bad,self,Yes,m,,,,m,1,599
6201,1,21,right,male,8,,68,BadOther.bmp,T.bmp,Badother,bad,other,Yes,m,,,,m,1,1082
6201,1,21,right,male,8,,69,GoodSelf.bmp,T.bmp,Badother,good,self,No,k,,,,k,1,702
6201,1,21,right,male,8,,70,NormalOther.bmp,Tra.bmp,Normalself,normal,other,No,k,,,,k,1,858
6201,1,21,right,male,8,,71,GoodOther.bmp,S.bmp,Normalother,good,other,No,k,,,,k,1,535
6201,1,21,right,male,8,,72,NormalSelf.bmp,Tra.bmp,Normalself,normal,self,Yes,m,,,,,0,0
6201,1,21,right,male,8,,73,NormalSelf.bmp,P.bmp,Goodother,normal,self,No,k,,,,k,1,623
6201,1,21,right,male,8,,74,NormalOther.bmp,C.bmp,Goodself,normal,other,No,k,,,,k,1,891
6201,1,21,right,male,8,,75,BadOther.bmp,C.bmp,Goodself,bad,other,No,k,,,,k,1,672
6201,1,21,right,male,8,,76,NormalSelf.bmp,Tra.bmp,Normalself,normal,self,Yes,m,,,,m,1,476
6201,1,21,right,male,8,,77,GoodSelf.bmp,C.bmp,Goodself,good,self,Yes,m,,,,k,0,624
6201,1,21,right,male,8,,78,BadOther.bmp,T.bmp,Badother,bad,other,Yes,m,,,,m,1,772
6201,1,21,right,male,8,,79,GoodSelf.bmp,C.bmp,Goodself,good,self,Yes,m,,,,m,1,304
6201,1,21,right,male,8,,80,GoodOther.bmp,P.bmp,Goodother,good,other,Yes,m,,,,m,1,853
6201,1,21,right,male,8,,81,NormalOther.bmp,S.bmp,Normalother,normal,other,Yes,m,,,,m,1,897
6201,1,21,right,male,8,,82,GoodSelf.bmp,Tra.bmp,Normalself,good,self,No,k,,,,k,1,397
6201,1,21,right,male,8,,83,BadOther.bmp,Tra.bmp,Normalself,bad,other,No,k,,,,k,1,537
6201,1,21,right,male,8,,84,GoodOther.bmp,P.bmp,Goodother,good,other,Yes,m,,,,m,1,845
6201,1,21,right,male,8,,85,NormalOther.bmp,S.bmp,Normalother,normal,other,Yes,m,,,,m,1,553
6201,1,21,right,male,8,,86,BadSelf.bmp,S.bmp,Normalother,bad,self,No,k,,,,k,1,629
6201,1,21,right,male,8,,87,GoodOther.bmp,P.bmp,Goodother,good,other,Yes,m,,,,m,1,609
6201,1,21,right,male,8,,88,NormalOther.bmp,T.bmp,Badother,normal,other,No,k,,,,k,1,862
6201,1,21,right,male,8,,89,BadSelf.bmp,D.bmp,Badself,bad,self,Yes,m,,,,m,1,1026
6201,1,21,right,male,8,,90,NormalSelf.bmp,S.bmp,Normalother,normal,self,No,k,,,,k,1,446
6201,1,21,right,male,8,,91,NormalOther.bmp,S.bmp,Normalother,normal,other,Yes,m,,,,m,1,1074
6201,1,21,right,male,8,,92,NormalOther.bmp,S.bmp,Normalother,normal,other,Yes,m,,,,m,1,430
6201,1,21,right,male,8,,93,NormalSelf.bmp,Tra.bmp,Normalself,normal,self,Yes,m,,,,m,1,475
6201,1,21,right,male,8,,94,GoodSelf.bmp,D.bmp,Badself,good,self,No,k,,,,k,1,903
6201,1,21,right,male,8,,95,BadOther.bmp,T.bmp,Badother,bad,other,Yes,m,,,,,0,0
6201,1,21,right,male,8,,96,NormalSelf.bmp,T.bmp,Badother,normal,self,No,k,,,,m,0,423
6201,1,21,right,male,8,,97,BadSelf.bmp,T.bmp,Badother,bad,self,No,k,,,,m,0,156
6201,1,21,right,male,8,,98,NormalSelf.bmp,C.bmp,Goodself,normal,self,No,k,,,,k,1,464
6201,1,21,right,male,8,,99,NormalSelf.bmp,Tra.bmp,Normalself,normal,self,Yes,m,,,,m,1,603
6201,1,21,right,male,8,,100,NormalOther.bmp,P.bmp,Goodother,normal,other,No,k,,,,,0,0
6201,1,21,right,male,8,,101,NormalOther.bmp,S.bmp,Normalother,normal,other,Yes,m,,,,,0,0
6201,1,21,right,male,8,,102,BadSelf.bmp,D.bmp,Badself,bad,self,Yes,m,,,,m,1,488
6201,1,21,right,male,8,,103,NormalSelf.bmp,Tra.bmp,Normalself,normal,self,Yes,m,,,,m,1,396
6201,1,21,right,male,8,,104,BadSelf.bmp,C.bmp,Goodself,bad,self,No,k,,,,k,1,816
6201,1,21,right,male,8,,105,BadSelf.bmp,D.bmp,Badself,bad,self,Yes,m,,,,m,1,805
6201,1,21,right,male,8,,106,BadSelf.bmp,P.bmp,Goodother,bad,self,No,k,,,,k,1,665
6201,1,21,right,male,8,,107,GoodOther.bmp,P.bmp,Goodother,good,other,Yes,m,,,,m,1,581
6201,1,21,right,male,8,,108,GoodOther.bmp,T.bmp,Badother,good,other,No,k,,,,k,1,889
6201,1,21,right,male,8,,109,BadSelf.bmp,Tra.bmp,Normalself,bad,self,No,k,,,,k,1,757
6201,1,21,right,male,8,,110,BadOther.bmp,T.bmp,Badother,bad,other,Yes,m,,,,m,1,450
6201,1,21,right,male,8,,111,GoodSelf.bmp,P.bmp,Goodother,good,self,No,k,,,,k,1,654
6201,1,21,right,male,8,,112,BadOther.bmp,S.bmp,Normalother,bad,other,No,k,,,,k,1,778
6201,1,21,right,male,8,,113,BadSelf.bmp,D.bmp,Badself,bad,self,Yes,m,,,,,0,0
6201,1,21,right,male,8,,114,GoodSelf.bmp,C.bmp,Goodself,good,self,Yes,m,,,,m,1,330
6201,1,21,right,male,8,,115,BadOther.bmp,P.bmp,Goodother,bad,other,No,k,,,,k,1,838
6201,1,21,right,male,8,,116,GoodOther.bmp,D.bmp,Badself,good,other,No,k,,,,k,1,1042
6201,1,21,right,male,8,,117,GoodOther.bmp,Tra.bmp,Normalself,good,other,No,k,,,,m,0,1086
6201,1,21,right,male,8,,118,GoodSelf.bmp,S.bmp,Normalother,good,self,No,k,,,,k,1,587
6201,1,21,right,male,8,,119,GoodOther.bmp,C.bmp,Goodself,good,other,No,k,,,,,0,0
6201,1,21,right,male,8,,120,BadOther.bmp,D.bmp,Badself,bad,other,No,k,,,,,0,0
6201,1,21,right,male,9,,1,NormalSelf.bmp,Tra.bmp,Normalself,normal,self,Yes,m,,,,m,1,452
6201,1,21,right,male,9,,2,NormalSelf.bmp,C.bmp,Goodself,normal,self,No,k,,,,k,1,393
6201,1,21,right,male,9,,3,NormalOther.bmp,T.bmp,Badother,normal,other,No,k,,,,k,1,477
6201,1,21,right,male,9,,4,GoodOther.bmp,T.bmp,Badother,good,other,No,k,,,,k,1,857
6201,1,21,right,male,9,,5,NormalSelf.bmp,Tra.bmp,Normalself,normal,self,Yes,m,,,,m,1,357
6201,1,21,right,male,9,,6,BadOther.bmp,P.bmp,Goodother,bad,other,No,k,,,,k,1,577
6201,1,21,right,male,9,,7,NormalSelf.bmp,T.bmp,Badother,normal,self,No,k,,,,k,1,1053
6201,1,21,right,male,9,,8,NormalSelf.bmp,D.bmp,Badself,normal,self,No,k,,,,k,1,489
6201,1,21,right,male,9,,9,NormalOther.bmp,S.bmp,Normalother,normal,other,Yes,m,,,,m,1,421
6201,1,21,right,male,9,,10,GoodOther.bmp,P.bmp,Goodother,good,other,Yes,m,,,,m,1,434
6201,1,21,right,male,9,,11,GoodOther.bmp,C.bmp,Goodself,good,other,No,k,,,,k,1,486
6201,1,21,right,male,9,,12,NormalOther.bmp,S.bmp,Normalother,normal,other,Yes,m,,,,m,1,770
6201,1,21,right,male,9,,13,NormalSelf.bmp,Tra.bmp,Normalself,normal,self,Yes,m,,,,m,1,438
6201,1,21,right,male,9,,14,BadSelf.bmp,D.bmp,Badself,bad,self,Yes,m,,,,m,1,987
6201,1,21,right,male,9,,15,BadOther.bmp,S.bmp,Normalother,bad,other,No,k,,,,k,1,1015
6201,1,21,right,male,9,,16,BadSelf.bmp,D.bmp,Badself,bad,self,Yes,m,,,,m,1,459
6201,1,21,right,male,9,,17,GoodSelf.bmp,T.bmp,Badother,good,self,No,k,,,,k,1,431
6201,1,21,right,male,9,,18,BadOther.bmp,D.bmp,Badself,bad,other,No,k,,,,m,0,931
6201,1,21,right,male,9,,19,GoodOther.bmp,D.bmp,Badself,good,other,No,k,,,,,0,0
6201,1,21,right,male,9,,20,GoodOther.bmp,Tra.bmp,Normalself,good,other,No,k,,,,k,1,1027
6201,1,21,right,male,9,,21,GoodSelf.bmp,C.bmp,Goodself,good,self,Yes,m,,,,m,1,359
6201,1,21,right,male,9,,22,NormalOther.bmp,P.bmp,Goodother,normal,other,No,k,,,,k,1,1011
6201,1,21,right,male,9,,23,GoodSelf.bmp,D.bmp,Badself,good,self,No,k,,,,,0,0
6201,1,21,right,male,9,,24,BadOther.bmp,Tra.bmp,Normalself,bad,other,No,k,,,,k,1,860
6201,1,21,right,male,9,,25,NormalOther.bmp,S.bmp,Normalother,normal,other,Yes,m,,,,,0,0
6201,1,21,right,male,9,,26,BadSelf.bmp,S.bmp,Normalother,bad,self,No,k,,,,m,0,852
6201,1,21,right,male,9,,27,BadSelf.bmp,D.bmp,Badself,bad,self,Yes,m,,,,m,1,961
6201,1,21,right,male,9,,28,GoodSelf.bmp,P.bmp,Goodother,good,self,No,k,,,,k,1,461
6201,1,21,right,male,9,,29,GoodOther.bmp,P.bmp,Goodother,good,other,Yes,m,,,,m,1,1017
6201,1,21,right,male,9,,30,NormalOther.bmp,D.bmp,Badself,normal,other,No,k,,,,k,1,661
6201,1,21,right,male,9,,31,BadSelf.bmp,P.bmp,Goodother,bad,self,No,k,,,,k,1,689
6201,1,21,right,male,9,,32,BadOther.bmp,T.bmp,Badother,bad,other,Yes,m,,,,m,1,622
6201,1,21,right,male,9,,33,GoodOther.bmp,P.bmp,Goodother,good,other,Yes,m,,,,m,1,354
6201,1,21,right,male,9,,34,BadOther.bmp,T.bmp,Badother,bad,other,Yes,m,,,,m,1,502
6201,1,21,right,male,9,,35,BadOther.bmp,T.bmp,Badother,bad,other,Yes,m,,,,m,1,610
6201,1,21,right,male,9,,36,BadOther.bmp,T.bmp,Badother,bad,other,Yes,m,,,,,0,0
6201,1,21,right,male,9,,37,GoodSelf.bmp,C.bmp,Goodself,good,self,Yes,m,,,,m,1,362
6201,1,21,right,male,9,,38,BadSelf.bmp,D.bmp,Badself,bad,self,Yes,m,,,,k,0,958
6201,1,21,right,male,9,,39,NormalSelf.bmp,P.bmp,Goodother,normal,self,No,k,,,,m,0,410
6201,1,21,right,male,9,,40,NormalOther.bmp,S.bmp,Normalother,normal,other,Yes,m,,,,,0,0
6201,1,21,right,male,9,,41,GoodOther.bmp,P.bmp,Goodother,good,other,Yes,m,,,,m,1,411
6201,1,21,right,male,9,,42,NormalSelf.bmp,Tra.bmp,Normalself,normal,self,Yes,m,,,,,0,0
6201,1,21,right,male,9,,43,NormalOther.bmp,Tra.bmp,Normalself,normal,other,No,k,,,,m,0,827
6201,1,21,right,male,9,,44,GoodSelf.bmp,C.bmp,Goodself,good,self,Yes,m,,,,m,1,328
6201,1,21,right,male,9,,45,BadSelf.bmp,Tra.bmp,Normalself,bad,self,No,k,,,,k,1,700
