Subject,Age,Handedness,Sex,BlockList.Sample,SubTrial,Label,Target,Shape,YesNoResp,Target.CRESP,Target.RESP,Target.ACC,Target.RT
1154,19,right,female,,1,常人,S.bmp,Good,No,n,,0,0
1154,19,right,female,,2,恶人,C.bmp,Bad,Yes,m,,0,0
1154,19,right,female,,3,常人,C.bmp,Bad,No,n,,0,0
1154,19,right,female,,4,善人,T.bmp,Normal,No,n,,0,0
1154,19,right,female,,5,善人,S.bmp,Good,Yes,m,,0,0
1154,19,right,female,,6,常人,T.bmp,Normal,Yes,m,,0,0
1154,19,right,female,,7,常人,T.bmp,Normal,Yes,m,m,1,215
1154,19,right,female,,8,善人,C.bmp,Bad,No,n,,0,0
1154,19,right,female,,9,善人,S.bmp,Good,Yes,m,n,0,308
1154,19,right,female,,10,恶人,S.bmp,Good,No,n,,0,0
1154,19,right,female,,11,恶人,T.bmp,Normal,No,n,n,1,290
1154,19,right,female,,12,恶人,C.bmp,Bad,Yes,m,n,0,329
1154,19,right,female,,13,恶人,C.bmp,Bad,Yes,m,n,0,364
1154,19,right,female,,14,常人,S.bmp,Good,No,n,n,1,356
1154,19,right,female,,15,恶人,T.bmp,Normal,No,n,,0,0
1154,19,right,female,,16,恶人,C.bmp,Bad,Yes,m,n,0,307
1154,19,right,female,,17,善人,C.bmp,Bad,No,n,n,1,474
1154,19,right,female,,18,常人,T.bmp,Normal,Yes,m,m,1,352
1154,19,right,female,,19,恶人,S.bmp,Good,No,n,m,0,222
1154,19,right,female,,20,常人,C.bmp,Bad,No,n,,0,0
1154,19,right,female,,21,善人,S.bmp,Good,Yes,m,m,1,212
1154,19,right,female,,22,常人,T.bmp,Normal,Yes,m,,0,0
1154,19,right,female,,23,善人,T.bmp,Normal,No,n,,0,0
1154,19,right,female,,24,善人,S.bmp,Good,Yes,m,m,1,311
1154,19,right,female,,25,常人,S.bmp,Good,No,n,,0,0
1154,19,right,female,,26,恶人,T.bmp,Normal,No,n,m,0,277
1154,19,right,female,,27,常人,T.bmp,Normal,Yes,m,m,1,426
1154,19,right,female,,28,善人,S.bmp,Good,Yes,m,,0,0
1154,19,right,female,,29,善人,C.bmp,Bad,No,n,n,1,638
1154,19,right,female,,30,恶人,C.bmp,Bad,Yes,m,n,0,386
1154,19,right,female,,31,恶人,C.bmp,Bad,Yes,m,n,0,389
1154,19,right,female,,32,善人,T.bmp,Normal,No,n,m,0,455
1154,19,right,female,,33,常人,T.bmp,Normal,Yes,m,,0,0
1154,19,right,female,,34,常人,C.bmp,Bad,No,n,m,0,208
1154,19,right,female,,35,善人,S.bmp,Good,Yes,m,,0,0
1154,19,right,female,,36,恶人,S.bmp,Good,No,n,m,0,326
1154,19,right,female,,37,恶人,S.bmp,Good,No,n,,0,0
1154,19,right,female,,38,善人,T.bmp,Normal,No,n,n,1,316
1154,19,right,female,,39,常人,C.bmp,Bad,No,n,,0,0
1154,19,right,female,,40,常人,T.bmp,Normal,Yes,m,n,0,232
1154,19,right,female,,41,常人,T.bmp,Normal,Yes,m,,0,0
1154,19,right,female,,42,恶人,C.bmp,Bad,Yes,m,n,0,228
1154,19,right,female,,43,常人,S.bmp,Good,No,n,n,1,288
1154,19,right,female,,44,善人,C.bmp,Bad,No,n,,0,0
1154,19,right,female,,45,恶人,C.bmp,Bad,Yes,m,n,0,207
1154,19,right,female,,46,恶人,T.bmp,Normal,No,n,n,1,618
1154,19,right,female,,47,善人,S.bmp,Good,Yes,m,m,1,241
1154,19,right,female,,48,善人,S.bmp,Good,Yes,m,n,0,323
1154,19,right,female,,49,恶人,C.bmp,Bad,Yes,m,n,0,343
1154,19,right,female,,50,善人,S.bmp,Good,Yes,m,m,1,230
1154,19,right,female,,51,常人,S.bmp,Good,No,n,m,0,350
1154,19,right,female,,52,常人,T.bmp,Normal,Yes,m,n,0,294
1154,19,right,female,,53,恶人,C.bmp,Bad,Yes,m,m,1,241
1154,19,right,female,,54,常人,C.bmp,Bad,No,n,n,1,233
1154,19,right,female,,55,善人,T.bmp,Normal,No,n,m,0,293
1154,19,right,female,,56,恶人,T.bmp,Normal,No,n,n,1,294
1154,19,right,female,,57,恶人,S.bmp,Good,No,n,n,1,274
1154,19,right,female,,58,常人,T.bmp,Normal,Yes,m,n,0,275
1154,19,right,female,,59,善人,S.bmp,Good,Yes,m,n,0,433
1154,19,right,female,,60,善人,C.bmp,Bad,No,n,n,1,400
1154,19,right,female,1,1,常人,S.bmp,Good,No,n,n,1,311
1154,19,right,female,1,2,善人,S.bmp,Good,Yes,m,m,1,303
1154,19,right,female,1,3,恶人,C.bmp,Bad,Yes,m,m,1,332
1154,19,right,female,1,4,常人,T.bmp,Normal,Yes,m,n,0,395
1154,19,right,female,1,5,常人,C.bmp,Bad,No,n,m,0,247
1154,19,right,female,1,6,善人,C.bmp,Bad,No,n,n,1,283
1154,19,right,female,1,7,常人,T.bmp,Normal,Yes,m,n,0,501
1154,19,right,female,1,8,善人,S.bmp,Good,Yes,m,m,1,271
1154,19,right,female,1,9,恶人,S.bmp,Good,No,n,n,1,247
1154,19,right,female,1,10,恶人,T.bmp,Normal,No,n,m,0,224
1154,19,right,female,1,11,恶人,C.bmp,Bad,Yes,m,,0,0
1154,19,right,female,1,12,善人,T.bmp,Normal,No,n,n,1,623
1154,19,right,female,1,13,常人,C.bmp,Bad,No,n,n,1,291
1154,19,right,female,1,14,常人,T.bmp,Normal,Yes,m,m,1,535
1154,19,right,female,1,15,恶人,C.bmp,Bad,Yes,m,m,1,520
1154,19,right,female,1,16,恶人,S.bmp,Good,No,n,,0,0
1154,19,right,female,1,17,恶人,T.bmp,Normal,No,n,n,1,219
1154,19,right,female,1,18,常人,T.bmp,Normal,Yes,m,n,0,261
1154,19,right,female,1,19,善人,T.bmp,Normal,No,n,m,0,241
1154,19,right,female,1,20,善人,S.bmp,Good,Yes,m,,0,0
1154,19,right,female,1,21,善人,S.bmp,Good,Yes,m,n,0,236
1154,19,right,female,1,22,恶人,C.bmp,Bad,Yes,m,m,1,418
1154,19,right,female,1,23,善人,C.bmp,Bad,No,n,n,1,240
1154,19,right,female,1,24,常人,S.bmp,Good,No,n,n,1,358
1154,19,right,female,1,25,善人,T.bmp,Normal,No,n,m,0,222
1154,19,right,female,1,26,恶人,C.bmp,Bad,Yes,m,n,0,211
1154,19,right,female,1,27,常人,T.bmp,Normal,Yes,m,m,1,265
1154,19,right,female,1,28,常人,S.bmp,Good,No,n,n,1,286
1154,19,right,female,1,29,善人,S.bmp,Good,Yes,m,n,0,280
1154,19,right,female,1,30,善人,C.bmp,Bad,No,n,m,0,19
1154,19,right,female,1,31,恶人,S.bmp,Good,No,n,,0,0
1154,19,right,female,1,32,常人,C.bmp,Bad,No,n,,0,0
1154,19,right,female,1,33,常人,T.bmp,Normal,Yes,m,,0,0
1154,19,right,female,1,34,善人,S.bmp,Good,Yes,m,m,1,272
1154,19,right,female,1,35,恶人,T.bmp,Normal,No,n,m,0,194
1154,19,right,female,1,36,恶人,C.bmp,Bad,Yes,m,m,1,245
1154,19,right,female,1,37,恶人,C.bmp,Bad,Yes,m,n,0,251
1154,19,right,female,1,38,常人,T.bmp,Normal,Yes,m,m,1,626
1154,19,right,female,1,39,恶人,T.bmp,Normal,No,n,,0,0
1154,19,right,female,1,40,善人,S.bmp,Good,Yes,m,,0,0
1154,19,right,female,1,41,恶人,S.bmp,Good,No,n,n,1,297
1154,19,right,female,1,42,常人,S.bmp,Good,No,n,n,1,297
1154,19,right,female,1,43,善人,T.bmp,Normal,No,n,,0,0
1154,19,right,female,1,44,常人,C.bmp,Bad,No,n,n,1,367
1154,19,right,female,1,45,善人,C.bmp,Bad,No,n,n,1,93
1154,19,right,female,1,46,恶人,C.bmp,Bad,Yes,m,n,0,8
1154,19,right,female,1,47,善人,S.bmp,Good,Yes,m,m,1,562
1154,19,right,female,1,48,常人,T.bmp,Normal,Yes,m,m,1,236
1154,19,right,female,1,49,恶人,C.bmp,Bad,Yes,m,n,0,235
1154,19,right,female,1,50,善人,S.bmp,Good,Yes,m,m,1,215
1154,19,right,female,1,51,善人,T.bmp,Normal,No,n,,0,0
1154,19,right,female,1,52,善人,S.bmp,Good,Yes,m,n,0,305
1154,19,right,female,1,53,常人,C.bmp,Bad,No,n,m,0,267
1154,19,right,female,1,54,善人,C.bmp,Bad,No,n,m,0,283
1154,19,right,female,1,55,常人,T.bmp,Normal,Yes,m,m,1,254
1154,19,right,female,1,56,恶人,T.bmp,Normal,No,n,m,0,438
1154,19,right,female,1,57,恶人,S.bmp,Good,No,n,n,1,272
1154,19,right,female,1,58,常人,T.bmp,Normal,Yes,m,n,0,220
1154,19,right,female,1,59,恶人,C.bmp,Bad,Yes,m,n,0,71
1154,19,right,female,1,60,常人,S.bmp,Good,No,n,n,1,354
1154,19,right,female,2,1,善人,S.bmp,Good,Yes,m,n,0,292
1154,19,right,female,2,2,常人,S.bmp,Good,No,n,n,1,376
1154,19,right,female,2,3,恶人,T.bmp,Normal,No,n,n,1,326
1154,19,right,female,2,4,恶人,S.bmp,Good,No,n,n,1,401
1154,19,right,female,2,5,善人,C.bmp,Bad,No,n,m,0,322
1154,19,right,female,2,6,常人,T.bmp,Normal,Yes,m,n,0,210
1154,19,right,female,2,7,善人,T.bmp,Normal,No,n,n,1,327
1154,19,right,female,2,8,恶人,C.bmp,Bad,Yes,m,m,1,532
1154,19,right,female,2,9,常人,C.bmp,Bad,No,n,n,1,251
1154,19,right,female,2,10,恶人,C.bmp,Bad,Yes,m,m,1,245
1154,19,right,female,2,11,常人,T.bmp,Normal,Yes,m,n,0,222
1154,19,right,female,2,12,善人,S.bmp,Good,Yes,m,m,1,297
1154,19,right,female,2,13,常人,T.bmp,Normal,Yes,m,n,0,210
1154,19,right,female,2,14,恶人,C.bmp,Bad,Yes,m,m,1,702
1154,19,right,female,2,15,善人,S.bmp,Good,Yes,m,m,1,472
1154,19,right,female,2,16,恶人,C.bmp,Bad,Yes,m,m,1,303
1154,19,right,female,2,17,善人,T.bmp,Normal,No,n,n,1,295
1154,19,right,female,2,18,善人,S.bmp,Good,Yes,m,,0,0
1154,19,right,female,2,19,恶人,S.bmp,Good,No,n,,0,0
1154,19,right,female,2,20,常人,C.bmp,Bad,No,n,n,1,353
1154,19,right,female,2,21,常人,S.bmp,Good,No,n,n,1,334
1154,19,right,female,2,22,善人,C.bmp,Bad,No,n,,0,0
1154,19,right,female,2,23,常人,T.bmp,Normal,Yes,m,,0,0
1154,19,right,female,2,24,恶人,T.bmp,Normal,No,n,n,1,241
1154,19,right,female,2,25,常人,C.bmp,Bad,No,n,n,1,286
1154,19,right,female,2,26,常人,S.bmp,Good,No,n,n,1,221
1154,19,right,female,2,27,善人,C.bmp,Bad,No,n,n,1,376
1154,19,right,female,2,28,恶人,S.bmp,Good,No,n,n,1,320
1154,19,right,female,2,29,恶人,C.bmp,Bad,Yes,m,n,0,218
1154,19,right,female,2,30,善人,T.bmp,Normal,No,n,m,0,418
1154,19,right,female,2,31,常人,T.bmp,Normal,Yes,m,m,1,416
1154,19,right,female,2,32,常人,T.bmp,Normal,Yes,m,n,0,155
1154,19,right,female,2,33,恶人,C.bmp,Bad,Yes,m,m,1,281
1154,19,right,female,2,34,善人,S.bmp,Good,Yes,m,n,0,219
1154,19,right,female,2,35,善人,S.bmp,Good,Yes,m,,0,0
1154,19,right,female,2,36,恶人,T.bmp,Normal,No,n,m,0,770
1154,19,right,female,2,37,常人,S.bmp,Good,No,n,n,1,240
1154,19,right,female,2,38,常人,T.bmp,Normal,Yes,m,n,0,306
1154,19,right,female,2,39,善人,S.bmp,Good,Yes,m,n,0,346
1154,19,right,female,2,40,常人,T.bmp,Normal,Yes,m,m,1,303
1154,19,right,female,2,41,善人,S.bmp,Good,Yes,m,n,0,209
1154,19,right,female,2,42,常人,C.bmp,Bad,No,n,m,0,331
1154,19,right,female,2,43,恶人,C.bmp,Bad,Yes,m,,0,0
1154,19,right,female,2,44,善人,C.bmp,Bad,No,n,m,0,351
1154,19,right,female,2,45,恶人,C.bmp,Bad,Yes,m,,0,0
1154,19,right,female,2,46,恶人,T.bmp,Normal,No,n,,0,0
1154,19,right,female,2,47,恶人,S.bmp,Good,No,n,,0,0
1154,19,right,female,2,48,善人,T.bmp,Normal,No,n,n,1,887
1154,19,right,female,2,49,常人,T.bmp,Normal,Yes,m,,0,0
1154,19,right,female,2,50,常人,T.bmp,Normal,Yes,m,n,0,418
1154,19,right,female,2,51,善人,T.bmp,Normal,No,n,n,1,868
1154,19,right,female,2,52,恶人,S.bmp,Good,No,n,m,0,726
1154,19,right,female,2,53,常人,C.bmp,Bad,No,n,,0,0
1154,19,right,female,2,54,恶人,T.bmp,Normal,No,n,n,1,355
1154,19,right,female,2,55,常人,S.bmp,Good,No,n,n,1,329
1154,19,right,female,2,56,恶人,C.bmp,Bad,Yes,m,n,0,398
1154,19,right,female,2,57,善人,S.bmp,Good,Yes,m,n,0,586
1154,19,right,female,2,58,善人,S.bmp,Good,Yes,m,m,1,994
1154,19,right,female,2,59,善人,C.bmp,Bad,No,n,m,0,410
1154,19,right,female,2,60,恶人,C.bmp,Bad,Yes,m,n,0,345
1154,19,right,female,3,1,常人,C.bmp,Bad,No,n,,0,0
1154,19,right,female,3,2,常人,T.bmp,Normal,Yes,m,m,1,289
1154,19,right,female,3,3,恶人,S.bmp,Good,No,n,n,1,367
1154,19,right,female,3,4,恶人,T.bmp,Normal,No,n,n,1,329
1154,19,right,female,3,5,善人,C.bmp,Bad,No,n,n,1,443
1154,19,right,female,3,6,常人,T.bmp,Normal,Yes,m,n,0,296
1154,19,right,female,3,7,善人,S.bmp,Good,Yes,m,n,0,266
1154,19,right,female,3,8,善人,S.bmp,Good,Yes,m,n,0,181
1154,19,right,female,3,9,恶人,C.bmp,Bad,Yes,m,n,0,304
1154,19,right,female,3,10,常人,S.bmp,Good,No,n,m,0,524
1154,19,right,female,3,11,善人,T.bmp,Normal,No,n,n,1,386
1154,19,right,female,3,12,恶人,C.bmp,Bad,Yes,m,,0,0
1154,19,right,female,3,13,恶人,S.bmp,Good,No,n,m,0,43
1154,19,right,female,3,14,常人,T.bmp,Normal,Yes,m,n,0,490
1154,19,right,female,3,15,善人,S.bmp,Good,Yes,m,m,1,390
1154,19,right,female,3,16,常人,C.bmp,Bad,No,n,m,0,746
1154,19,right,female,3,17,常人,S.bmp,Good,No,n,,0,0
1154,19,right,female,3,18,恶人,C.bmp,Bad,Yes,m,n,0,312
1154,19,right,female,3,19,善人,S.bmp,Good,Yes,m,,0,0
1154,19,right,female,3,20,恶人,C.bmp,Bad,Yes,m,m,1,315
1154,19,right,female,3,21,恶人,T.bmp,Normal,No,n,n,1,571
1154,19,right,female,3,22,善人,T.bmp,Normal,No,n,m,0,587
1154,19,right,female,3,23,善人,C.bmp,Bad,No,n,n,1,345
1154,19,right,female,3,24,常人,T.bmp,Normal,Yes,m,n,0,364
1154,19,right,female,3,25,恶人,S.bmp,Good,No,n,m,0,446
1154,19,right,female,3,26,常人,T.bmp,Normal,Yes,m,n,0,332
1154,19,right,female,3,27,善人,T.bmp,Normal,No,n,n,1,683
1154,19,right,female,3,28,恶人,C.bmp,Bad,Yes,m,n,0,555
1154,19,right,female,3,29,善人,S.bmp,Good,Yes,m,m,1,531
1154,19,right,female,3,30,恶人,T.bmp,Normal,No,n,m,0,250
1154,19,right,female,3,31,常人,C.bmp,Bad,No,n,n,1,1021
1154,19,right,female,3,32,善人,C.bmp,Bad,No,n,m,0,345
1154,19,right,female,3,33,常人,S.bmp,Good,No,n,,0,0
1154,19,right,female,3,34,常人,T.bmp,Normal,Yes,m,,0,0
1154,19,right,female,3,35,恶人,C.bmp,Bad,Yes,m,m,1,758
1154,19,right,female,3,36,善人,S.bmp,Good,Yes,m,m,1,492
1154,19,right,female,3,37,善人,S.bmp,Good,Yes,m,m,1,389
1154,19,right,female,3,38,常人,S.bmp,Good,No,n,m,0,403
1154,19,right,female,3,39,善人,S.bmp,Good,Yes,m,,0,0
1154,19,right,female,3,40,善人,T.bmp,Normal,No,n,m,0,399
1154,19,right,female,3,41,常人,C.bmp,Bad,No,n,m,0,517
1154,19,right,female,3,42,恶人,T.bmp,Normal,No,n,n,1,257
1154,19,right,female,3,43,常人,T.bmp,Normal,Yes,m,,0,0
1154,19,right,female,3,44,恶人,C.bmp,Bad,Yes,m,n,0,491
1154,19,right,female,3,45,常人,T.bmp,Normal,Yes,m,m,1,159
1154,19,right,female,3,46,善人,C.bmp,Bad,No,n,m,0,211
1154,19,right,female,3,47,恶人,S.bmp,Good,No,n,m,0,77
1154,19,right,female,3,48,恶人,C.bmp,Bad,Yes,m,m,1,65
1154,19,right,female,3,49,恶人,S.bmp,Good,No,n,n,1,175
1154,19,right,female,3,50,善人,C.bmp,Bad,No,n,n,1,303
1154,19,right,female,3,51,常人,S.bmp,Good,No,n,m,0,330
1154,19,right,female,3,52,常人,C.bmp,Bad,No,n,m,0,301
1154,19,right,female,3,53,恶人,C.bmp,Bad,Yes,m,m,1,135
1154,19,right,female,3,54,恶人,T.bmp,Normal,No,n,n,1,18
1154,19,right,female,3,55,善人,T.bmp,Normal,No,n,m,0,150
1154,19,right,female,3,56,善人,S.bmp,Good,Yes,m,m,1,80
1154,19,right,female,3,57,恶人,C.bmp,Bad,Yes,m,n,0,217
1154,19,right,female,3,58,善人,S.bmp,Good,Yes,m,m,1,193
1154,19,right,female,3,59,常人,T.bmp,Normal,Yes,m,n,0,65
1154,19,right,female,3,60,常人,T.bmp,Normal,Yes,m,m,1,16
1154,19,right,female,4,1,常人,S.bmp,Good,No,n,n,1,514
1154,19,right,female,4,2,善人,C.bmp,Bad,No,n,n,1,311
1154,19,right,female,4,3,恶人,S.bmp,Good,No,n,m,0,843
1154,19,right,female,4,4,常人,T.bmp,Normal,Yes,m,n,0,564
1154,19,right,female,4,5,常人,C.bmp,Bad,No,n,n,1,702
1154,19,right,female,4,6,恶人,C.bmp,Bad,Yes,m,n,0,246
1154,19,right,female,4,7,常人,T.bmp,Normal,Yes,m,n,0,271
1154,19,right,female,4,8,善人,T.bmp,Normal,No,n,m,0,524
1154,19,right,female,4,9,恶人,T.bmp,Normal,No,n,m,0,831
1154,19,right,female,4,10,恶人,C.bmp,Bad,Yes,m,n,0,395
1154,19,right,female,4,11,善人,S.bmp,Good,Yes,m,n,0,325
1154,19,right,female,4,12,善人,S.bmp,Good,Yes,m,,0,0
1154,19,right,female,4,13,善人,C.bmp,Bad,No,n,,0,0
1154,19,right,female,4,14,常人,T.bmp,Normal,Yes,m,n,0,1049
1154,19,right,female,4,15,恶人,S.bmp,Good,No,n,n,1,328
1154,19,right,female,4,16,善人,S.bmp,Good,Yes,m,n,0,252
1154,19,right,female,4,17,恶人,C.bmp,Bad,Yes,m,n,0,148
1154,19,right,female,4,18,恶人,T.bmp,Normal,No,n,n,1,41
1154,19,right,female,4,19,善人,S.bmp,Good,Yes,m,n,0,121
1154,19,right,female,4,20,恶人,C.bmp,Bad,Yes,m,n,0,126
1154,19,right,female,4,21,善人,T.bmp,Normal,No,n,n,1,176
1154,19,right,female,4,22,常人,T.bmp,Normal,Yes,m,n,0,177
1154,19,right,female,4,23,常人,C.bmp,Bad,No,n,n,1,247
1154,19,right,female,4,24,常人,S.bmp,Good,No,n,n,1,180
1154,19,right,female,4,25,善人,T.bmp,Normal,No,n,n,1,261
1154,19,right,female,4,26,恶人,C.bmp,Bad,Yes,m,n,0,39
1154,19,right,female,4,27,善人,S.bmp,Good,Yes,m,n,0,359
1154,19,right,female,4,28,常人,T.bmp,Normal,Yes,m,n,0,267
1154,19,right,female,4,29,常人,S.bmp,Good,No,n,n,1,234
1154,19,right,female,4,30,恶人,T.bmp,Normal,No,n,n,1,330
1154,19,right,female,4,31,善人,S.bmp,Good,Yes,m,n,0,160
1154,19,right,female,4,32,恶人,S.bmp,Good,No,n,n,1,149
1154,19,right,female,4,33,善人,C.bmp,Bad,No,n,n,1,98
1154,19,right,female,4,34,常人,C.bmp,Bad,No,n,n,1,135
1154,19,right,female,4,35,恶人,C.bmp,Bad,Yes,m,n,0,90
1154,19,right,female,4,36,常人,T.bmp,Normal,Yes,m,n,0,245
1154,19,right,female,4,37,善人,C.bmp,Bad,No,n,n,1,66
1154,19,right,female,4,38,善人,T.bmp,Normal,No,n,n,1,78
1154,19,right,female,4,39,常人,S.bmp,Good,No,n,n,1,58
1154,19,right,female,4,40,常人,T.bmp,Normal,Yes,m,n,0,8
1154,19,right,female,4,41,常人,T.bmp,Normal,Yes,m,n,0,119
1154,19,right,female,4,42,恶人,C.bmp,Bad,Yes,m,n,0,174
1154,19,right,female,4,43,善人,S.bmp,Good,Yes,m,n,0,64
1154,19,right,female,4,44,恶人,C.bmp,Bad,Yes,m,m,1,33
1154,19,right,female,4,45,恶人,T.bmp,Normal,No,n,m,0,334
1154,19,right,female,4,46,善人,S.bmp,Good,Yes,m,n,0,473
1154,19,right,female,4,47,恶人,S.bmp,Good,No,n,m,0,289
1154,19,right,female,4,48,常人,C.bmp,Bad,No,n,m,0,259
1154,19,right,female,4,49,恶人,C.bmp,Bad,Yes,m,m,1,719
1154,19,right,female,4,50,常人,T.bmp,Normal,Yes,m,m,1,812
1154,19,right,female,4,51,恶人,C.bmp,Bad,Yes,m,m,1,269
1154,19,right,female,4,52,恶人,S.bmp,Good,No,n,m,0,332
1154,19,right,female,4,53,善人,S.bmp,Good,Yes,m,n,0,137
1154,19,right,female,4,54,善人,T.bmp,Normal,No,n,m,0,366
1154,19,right,female,4,55,常人,C.bmp,Bad,No,n,m,0,275
1154,19,right,female,4,56,常人,T.bmp,Normal,Yes,m,,0,0
1154,19,right,female,4,57,恶人,T.bmp,Normal,No,n,m,0,405
1154,19,right,female,4,58,善人,C.bmp,Bad,No,n,n,1,72
1154,19,right,female,4,59,常人,S.bmp,Good,No,n,n,1,363
1154,19,right,female,4,60,善人,S.bmp,Good,Yes,m,n,0,74
1154,19,right,female,5,1,善人,C.bmp,Bad,No,n,,0,0
1154,19,right,female,5,2,恶人,C.bmp,Bad,Yes,m,m,1,731
1154,19,right,female,5,3,恶人,T.bmp,Normal,No,n,n,1,595
1154,19,right,female,5,4,常人,S.bmp,Good,No,n,,0,0
1154,19,right,female,5,5,恶人,C.bmp,Bad,Yes,m,,0,0
1154,19,right,female,5,6,善人,S.bmp,Good,Yes,m,n,0,366
1154,19,right,female,5,7,恶人,S.bmp,Good,No,n,m,0,613
1154,19,right,female,5,8,善人,S.bmp,Good,Yes,m,,0,0
1154,19,right,female,5,9,常人,T.bmp,Normal,Yes,m,n,0,310
1154,19,right,female,5,10,常人,C.bmp,Bad,No,n,n,1,540
1154,19,right,female,5,11,常人,T.bmp,Normal,Yes,m,n,0,347
1154,19,right,female,5,12,善人,T.bmp,Normal,No,n,m,0,580
1154,19,right,female,5,13,恶人,C.bmp,Bad,Yes,m,m,1,592
1154,19,right,female,5,14,善人,C.bmp,Bad,No,n,n,1,406
1154,19,right,female,5,15,善人,S.bmp,Good,Yes,m,,0,0
1154,19,right,female,5,16,恶人,T.bmp,Normal,No,n,n,1,887
1154,19,right,female,5,17,善人,S.bmp,Good,Yes,m,n,0,567
1154,19,right,female,5,18,常人,C.bmp,Bad,No,n,n,1,521
1154,19,right,female,5,19,善人,T.bmp,Normal,No,n,n,1,727
1154,19,right,female,5,20,恶人,S.bmp,Good,No,n,m,0,469
1154,19,right,female,5,21,常人,T.bmp,Normal,Yes,m,,0,0
1154,19,right,female,5,22,常人,S.bmp,Good,No,n,,0,0
1154,19,right,female,5,23,恶人,C.bmp,Bad,Yes,m,m,1,712
1154,19,right,female,5,24,常人,T.bmp,Normal,Yes,m,n,0,275
1154,19,right,female,5,25,恶人,C.bmp,Bad,Yes,m,m,1,718
1154,19,right,female,5,26,恶人,T.bmp,Normal,No,n,n,1,621
1154,19,right,female,5,27,善人,S.bmp,Good,Yes,m,m,1,847
1154,19,right,female,5,28,常人,T.bmp,Normal,Yes,m,m,1,512
1154,19,right,female,5,29,恶人,C.bmp,Bad,Yes,m,m,1,610
1154,19,right,female,5,30,常人,C.bmp,Bad,No,n,n,1,937
1154,19,right,female,5,31,善人,C.bmp,Bad,No,n,m,0,778
1154,19,right,female,5,32,善人,T.bmp,Normal,No,n,,0,0
1154,19,right,female,5,33,常人,S.bmp,Good,No,n,n,1,1000
1154,19,right,female,5,34,善人,S.bmp,Good,Yes,m,n,0,648
1154,19,right,female,5,35,恶人,S.bmp,Good,No,n,m,0,610
1154,19,right,female,5,36,常人,T.bmp,Normal,Yes,m,n,0,587
1154,19,right,female,5,37,常人,S.bmp,Good,No,n,n,1,793
1154,19,right,female,5,38,常人,T.bmp,Normal,Yes,m,n,0,841
1154,19,right,female,5,39,恶人,C.bmp,Bad,Yes,m,m,1,634
1154,19,right,female,5,40,善人,C.bmp,Bad,No,n,n,1,552
1154,19,right,female,5,41,恶人,S.bmp,Good,No,n,n,1,399
1154,19,right,female,5,42,常人,C.bmp,Bad,No,n,m,0,370
1154,19,right,female,5,43,善人,T.bmp,Normal,No,n,,0,0
1154,19,right,female,5,44,恶人,T.bmp,Normal,No,n,n,1,926
1154,19,right,female,5,45,常人,T.bmp,Normal,Yes,m,n,0,1037
1154,19,right,female,5,46,善人,S.bmp,Good,Yes,m,m,1,883
1154,19,right,female,5,47,善人,S.bmp,Good,Yes,m,m,1,616
1154,19,right,female,5,48,恶人,C.bmp,Bad,Yes,m,m,1,513
1154,19,right,female,5,49,恶人,T.bmp,Normal,No,n,m,0,345
1154,19,right,female,5,50,常人,C.bmp,Bad,No,n,n,1,869
1154,19,right,female,5,51,恶人,C.bmp,Bad,Yes,m,m,1,632
1154,19,right,female,5,52,常人,T.bmp,Normal,Yes,m,m,1,751
1154,19,right,female,5,53,善人,S.bmp,Good,Yes,m,m,1,425
1154,19,right,female,5,54,善人,C.bmp,Bad,No,n,n,1,738
1154,19,right,female,5,55,常人,S.bmp,Good,No,n,n,1,905
1154,19,right,female,5,56,常人,T.bmp,Normal,Yes,m,n,0,685
1154,19,right,female,5,57,善人,T.bmp,Normal,No,n,n,1,705
1154,19,right,female,5,58,恶人,C.bmp,Bad,Yes,m,m,1,560
1154,19,right,female,5,59,恶人,S.bmp,Good,No,n,n,1,915
1154,19,right,female,5,60,善人,S.bmp,Good,Yes,m,m,1,805
1154,19,right,female,6,1,恶人,C.bmp,Bad,Yes,m,,0,0
1154,19,right,female,6,2,恶人,T.bmp,Normal,No,n,,0,0
1154,19,right,female,6,3,常人,C.bmp,Bad,No,n,n,1,291
1154,19,right,female,6,4,常人,S.bmp,Good,No,n,n,1,324
1154,19,right,female,6,5,恶人,C.bmp,Bad,Yes,m,m,1,506
1154,19,right,female,6,6,善人,C.bmp,Bad,No,n,m,0,599
1154,19,right,female,6,7,常人,T.bmp,Normal,Yes,m,n,0,810
1154,19,right,female,6,8,善人,S.bmp,Good,Yes,m,,0,0
1154,19,right,female,6,9,恶人,S.bmp,Good,No,n,n,1,877
1154,19,right,female,6,10,善人,T.bmp,Normal,No,n,,0,0
1154,19,right,female,6,11,善人,S.bmp,Good,Yes,m,m,1,725
1154,19,right,female,6,12,常人,T.bmp,Normal,Yes,m,m,1,1074
1154,19,right,female,6,13,常人,S.bmp,Good,No,n,,0,0
1154,19,right,female,6,14,常人,T.bmp,Normal,Yes,m,m,1,529
1154,19,right,female,6,15,善人,S.bmp,Good,Yes,m,m,1,521
1154,19,right,female,6,16,常人,C.bmp,Bad,No,n,n,1,750
1154,19,right,female,6,17,善人,S.bmp,Good,Yes,m,m,1,772
1154,19,right,female,6,18,恶人,C.bmp,Bad,Yes,m,m,1,590
1154,19,right,female,6,19,善人,C.bmp,Bad,No,n,m,0,645
1154,19,right,female,6,20,善人,T.bmp,Normal,No,n,n,1,622
1154,19,right,female,6,21,恶人,S.bmp,Good,No,n,m,0,615
1154,19,right,female,6,22,恶人,T.bmp,Normal,No,n,,0,0
1154,19,right,female,6,23,常人,T.bmp,Normal,Yes,m,,0,0
1154,19,right,female,6,24,恶人,C.bmp,Bad,Yes,m,m,1,531
1154,19,right,female,6,25,善人,T.bmp,Normal,No,n,n,1,585
1154,19,right,female,6,26,善人,C.bmp,Bad,No,n,n,1,826
1154,19,right,female,6,27,恶人,T.bmp,Normal,No,n,,0,0
1154,19,right,female,6,28,善人,S.bmp,Good,Yes,m,,0,0
1154,19,right,female,6,29,常人,T.bmp,Normal,Yes,m,n,0,509
1154,19,right,female,6,30,常人,S.bmp,Good,No,n,,0,0
1154,19,right,female,6,31,善人,S.bmp,Good,Yes,m,n,0,722
1154,19,right,female,6,32,常人,T.bmp,Normal,Yes,m,,0,0
1154,19,right,female,6,33,常人,C.bmp,Bad,No,n,n,1,944
1154,19,right,female,6,34,恶人,S.bmp,Good,No,n,,0,0
1154,19,right,female,6,35,恶人,C.bmp,Bad,Yes,m,m,1,921
1154,19,right,female,6,36,恶人,C.bmp,Bad,Yes,m,m,1,794
1154,19,right,female,6,37,善人,C.bmp,Bad,No,n,n,1,635
1154,19,right,female,6,38,善人,S.bmp,Good,Yes,m,n,0,428
1154,19,right,female,6,39,恶人,C.bmp,Bad,Yes,m,m,1,925
1154,19,right,female,6,40,常人,T.bmp,Normal,Yes,m,m,1,694
1154,19,right,female,6,41,恶人,T.bmp,Normal,No,n,n,1,736
1154,19,right,female,6,42,常人,C.bmp,Bad,No,n,m,0,612
1154,19,right,female,6,43,善人,T.bmp,Normal,No,n,,0,0
1154,19,right,female,6,44,常人,T.bmp,Normal,Yes,m,,0,0
1154,19,right,female,6,45,恶人,S.bmp,Good,No,n,m,0,837
1154,19,right,female,6,46,恶人,C.bmp,Bad,Yes,m,m,1,60
1154,19,right,female,6,47,常人,S.bmp,Good,No,n,m,0,504
1154,19,right,female,6,48,善人,S.bmp,Good,Yes,m,n,0,431
1154,19,right,female,6,49,善人,T.bmp,Normal,No,n,m,0,429
1154,19,right,female,6,50,恶人,S.bmp,Good,No,n,,0,0
1154,19,right,female,6,51,善人,S.bmp,Good,Yes,m,m,1,108
1154,19,right,female,6,52,恶人,T.bmp,Normal,No,n,n,1,50
1154,19,right,female,6,53,恶人,C.bmp,Bad,Yes,m,m,1,209
1154,19,right,female,6,54,常人,T.bmp,Normal,Yes,m,m,1,281
1154,19,right,female,6,55,善人,C.bmp,Bad,No,n,m,0,484
1154,19,right,female,6,56,恶人,C.bmp,Bad,Yes,m,n,0,306
1154,19,right,female,6,57,常人,T.bmp,Normal,Yes,m,m,1,229
1154,19,right,female,6,58,常人,S.bmp,Good,No,n,n,1,352
1154,19,right,female,6,59,善人,S.bmp,Good,Yes,m,n,0,229
1154,19,right,female,6,60,常人,C.bmp,Bad,No,n,m,0,256
1141,20,right,female,,1,常人,S.bmp,Bad,No,m,,0,0
1141,20,right,female,,2,恶人,S.bmp,Bad,Yes,n,,0,0
1141,20,right,female,,3,善人,T.bmp,Good,Yes,n,,0,0
1141,20,right,female,,4,善人,C.bmp,Normal,No,m,,0,0
1141,20,right,female,,5,善人,T.bmp,Good,Yes,n,,0,0
1141,20,right,female,,6,恶人,S.bmp,Bad,Yes,n,,0,0
1141,20,right,female,,7,常人,C.bmp,Normal,Yes,n,,0,0
1141,20,right,female,,8,常人,C.bmp,Normal,Yes,n,,0,0
1141,20,right,female,,9,恶人,T.bmp,Good,No,m,,0,0
1141,20,right,female,,10,常人,T.bmp,Good,No,m,,0,0
1141,20,right,female,,11,恶人,C.bmp,Normal,No,m,,0,0
1141,20,right,female,,12,善人,S.bmp,Bad,No,m,m,1,770
1141,20,right,female,,13,善人,C.bmp,Normal,No,m,,0,0
1141,20,right,female,,14,善人,T.bmp,Good,Yes,n,n,1,796
1141,20,right,female,,15,常人,C.bmp,Normal,Yes,n,m,0,881
1141,20,right,female,,16,善人,S.bmp,Bad,No,m,,0,0
1141,20,right,female,,17,恶人,S.bmp,Bad,Yes,n,m,0,859
1141,20,right,female,,18,善人,T.bmp,Good,Yes,n,n,1,906
1141,20,right,female,,19,常人,S.bmp,Bad,No,m,m,1,914
1141,20,right,female,,20,常人,T.bmp,Good,No,m,n,0,845
1141,20,right,female,,21,常人,C.bmp,Normal,Yes,n,m,0,853
1141,20,right,female,,22,恶人,C.bmp,Normal,No,m,m,1,861
1141,20,right,female,,23,恶人,S.bmp,Bad,Yes,n,,0,0
1141,20,right,female,,24,恶人,T.bmp,Good,No,m,,0,0
1141,20,right,female,,25,常人,T.bmp,Good,No,m,n,0,752
1141,20,right,female,,26,恶人,C.bmp,Normal,No,m,m,1,760
1141,20,right,female,,27,善人,S.bmp,Bad,No,m,m,1,768
1141,20,right,female,,28,善人,T.bmp,Good,Yes,n,m,0,699
1141,20,right,female,,29,常人,S.bmp,Bad,No,m,m,1,823
1141,20,right,female,,30,常人,C.bmp,Normal,Yes,n,m,0,715
1141,20,right,female,,31,恶人,S.bmp,Bad,Yes,n,m,0,878
1141,20,right,female,,32,善人,T.bmp,Good,Yes,n,n,1,847
1141,20,right,female,,33,恶人,S.bmp,Bad,Yes,n,n,1,866
1141,20,right,female,,34,恶人,T.bmp,Good,No,m,n,0,604
1141,20,right,female,,35,常人,C.bmp,Normal,Yes,n,m,0,1037
1141,20,right,female,,36,善人,C.bmp,Normal,No,m,m,1,736
1141,20,right,female,1,1,常人,C.bmp,Normal,Yes,n,n,1,905
1141,20,right,female,1,2,常人,C.bmp,Normal,Yes,n,n,1,566
1141,20,right,female,1,3,善人,S.bmp,Bad,No,m,m,1,999
1141,20,right,female,1,4,善人,T.bmp,Good,Yes,n,n,1,968
1141,20,right,female,1,5,恶人,S.bmp,Bad,Yes,n,m,0,756
1141,20,right,female,1,6,常人,S.bmp,Bad,No,m,m,1,1074
1141,20,right,female,1,7,善人,T.bmp,Good,Yes,n,n,1,735
1141,20,right,female,1,8,善人,C.bmp,Normal,No,m,n,0,898
1141,20,right,female,1,9,恶人,C.bmp,Normal,No,m,m,1,829
1141,20,right,female,1,10,恶人,T.bmp,Good,No,m,n,0,991
1141,20,right,female,1,11,恶人,S.bmp,Bad,Yes,n,n,1,808
1141,20,right,female,1,12,常人,T.bmp,Good,No,m,m,1,854
1141,20,right,female,1,13,善人,S.bmp,Bad,No,m,m,1,786
1141,20,right,female,1,14,常人,C.bmp,Normal,Yes,n,n,1,756
1141,20,right,female,1,15,恶人,C.bmp,Normal,No,m,m,1,687
1141,20,right,female,1,16,恶人,S.bmp,Bad,Yes,n,n,1,772
1141,20,right,female,1,17,常人,S.bmp,Bad,No,m,m,1,626
1141,20,right,female,1,18,善人,T.bmp,Good,Yes,n,n,1,672
1141,20,right,female,1,19,常人,T.bmp,Good,No,m,m,1,719
1141,20,right,female,1,20,常人,C.bmp,Normal,Yes,n,,0,0
1141,20,right,female,1,21,恶人,T.bmp,Good,No,m,n,0,620
1141,20,right,female,1,22,善人,T.bmp,Good,Yes,n,n,1,821
1141,20,right,female,1,23,善人,C.bmp,Normal,No,m,m,1,1022
1141,20,right,female,1,24,恶人,S.bmp,Bad,Yes,n,n,1,772
1141,20,right,female,1,25,善人,S.bmp,Bad,No,m,m,1,703
1141,20,right,female,1,26,恶人,S.bmp,Bad,Yes,n,n,1,866
1141,20,right,female,1,27,善人,T.bmp,Good,Yes,n,n,1,643
1141,20,right,female,1,28,恶人,C.bmp,Normal,No,m,m,1,612
1141,20,right,female,1,29,善人,C.bmp,Normal,No,m,n,0,1083
1141,20,right,female,1,30,常人,T.bmp,Good,No,m,m,1,976
1141,20,right,female,1,31,常人,C.bmp,Normal,Yes,n,,0,0
1141,20,right,female,1,32,常人,S.bmp,Bad,No,m,m,1,838
1141,20,right,female,1,33,善人,T.bmp,Good,Yes,n,n,1,664
1141,20,right,female,1,34,常人,C.bmp,Normal,Yes,n,n,1,788
1141,20,right,female,1,35,恶人,T.bmp,Good,No,m,m,1,643
1141,20,right,female,1,36,恶人,S.bmp,Bad,Yes,n,n,1,651
1141,20,right,female,1,37,常人,T.bmp,Good,No,m,m,1,814
1141,20,right,female,1,38,恶人,C.bmp,Normal,No,m,m,1,1053
1141,20,right,female,1,39,常人,C.bmp,Normal,Yes,n,n,1,830
1141,20,right,female,1,40,善人,S.bmp,Bad,No,m,m,1,1031
1141,20,right,female,1,41,常人,S.bmp,Bad,No,m,n,0,692
1141,20,right,female,1,42,善人,T.bmp,Good,Yes,n,n,1,739
1141,20,right,female,1,43,恶人,T.bmp,Good,No,m,m,1,747
1141,20,right,female,1,44,恶人,S.bmp,Bad,Yes,n,n,1,601
1141,20,right,female,1,45,恶人,S.bmp,Bad,Yes,n,n,1,687
1141,20,right,female,1,46,常人,C.bmp,Normal,Yes,n,n,1,772
1141,20,right,female,1,47,善人,T.bmp,Good,Yes,n,n,1,665
1141,20,right,female,1,48,善人,C.bmp,Normal,No,m,n,0,904
1141,20,right,female,1,49,常人,C.bmp,Normal,Yes,n,n,1,990
1141,20,right,female,1,50,常人,C.bmp,Normal,Yes,n,n,1,574
1141,20,right,female,1,51,恶人,S.bmp,Bad,Yes,n,n,1,852
1141,20,right,female,1,52,善人,T.bmp,Good,Yes,n,n,1,871
1141,20,right,female,1,53,善人,T.bmp,Good,Yes,n,n,1,455
1141,20,right,female,1,54,常人,T.bmp,Good,No,m,n,0,425
1141,20,right,female,1,55,常人,S.bmp,Bad,No,m,m,1,780
1141,20,right,female,1,56,恶人,S.bmp,Bad,Yes,n,n,1,982
1141,20,right,female,1,57,善人,S.bmp,Bad,No,m,m,1,836
1141,20,right,female,1,58,恶人,T.bmp,Good,No,m,n,0,690
1141,20,right,female,1,59,恶人,C.bmp,Normal,No,m,m,1,1018
1141,20,right,female,1,60,善人,C.bmp,Normal,No,m,m,1,1064
1141,20,right,female,2,1,常人,C.bmp,Normal,Yes,n,n,1,701
1141,20,right,female,2,2,常人,S.bmp,Bad,No,m,n,0,516
1141,20,right,female,2,3,恶人,C.bmp,Normal,No,m,m,1,1028
1141,20,right,female,2,4,恶人,T.bmp,Good,No,m,n,0,804
1141,20,right,female,2,5,善人,C.bmp,Normal,No,m,n,0,697
1141,20,right,female,2,6,善人,S.bmp,Bad,No,m,m,1,860
1141,20,right,female,2,7,善人,T.bmp,Good,Yes,n,n,1,945
1141,20,right,female,2,8,恶人,S.bmp,Bad,Yes,n,n,1,876
1141,20,right,female,2,9,恶人,S.bmp,Bad,Yes,n,n,1,692
1141,20,right,female,2,10,常人,C.bmp,Normal,Yes,n,m,0,854
1141,20,right,female,2,11,善人,T.bmp,Good,Yes,n,n,1,671
1141,20,right,female,2,12,常人,T.bmp,Good,No,m,m,1,872
1141,20,right,female,2,13,善人,T.bmp,Good,Yes,n,n,1,841
1141,20,right,female,2,14,常人,T.bmp,Good,No,m,n,0,629
1141,20,right,female,2,15,常人,S.bmp,Bad,No,m,m,1,686
1141,20,right,female,2,16,善人,C.bmp,Normal,No,m,m,1,926
1141,20,right,female,2,17,恶人,T.bmp,Good,No,m,m,1,934
1141,20,right,female,2,18,常人,C.bmp,Normal,Yes,n,n,1,865
1141,20,right,female,2,19,恶人,C.bmp,Normal,No,m,m,1,681
1141,20,right,female,2,20,恶人,S.bmp,Bad,Yes,n,n,1,651
1141,20,right,female,2,21,善人,S.bmp,Bad,No,m,m,1,697
1141,20,right,female,2,22,善人,T.bmp,Good,Yes,n,n,1,1053
1141,20,right,female,2,23,常人,C.bmp,Normal,Yes,n,m,0,609
1141,20,right,female,2,24,恶人,S.bmp,Bad,Yes,n,n,1,782
1141,20,right,female,2,25,恶人,T.bmp,Good,No,m,m,1,1022
1141,20,right,female,2,26,善人,S.bmp,Bad,No,m,m,1,798
1141,20,right,female,2,27,常人,C.bmp,Normal,Yes,n,n,1,653
1141,20,right,female,2,28,善人,C.bmp,Normal,No,m,,0,0
1141,20,right,female,2,29,善人,T.bmp,Good,Yes,n,,0,0
1141,20,right,female,2,30,常人,T.bmp,Good,No,m,n,0,639
1141,20,right,female,2,31,善人,T.bmp,Good,Yes,n,n,1,763
1141,20,right,female,2,32,恶人,S.bmp,Bad,Yes,n,m,0,540
1141,20,right,female,2,33,常人,S.bmp,Bad,No,m,n,0,1090
1141,20,right,female,2,34,恶人,C.bmp,Normal,No,m,,0,0
1141,20,right,female,2,35,常人,C.bmp,Normal,Yes,n,n,1,453
1141,20,right,female,2,36,恶人,S.bmp,Bad,Yes,n,n,1,731
1141,20,right,female,2,37,善人,T.bmp,Good,Yes,n,n,1,585
1141,20,right,female,2,38,善人,C.bmp,Normal,No,m,m,1,747
1141,20,right,female,2,39,善人,T.bmp,Good,Yes,n,n,1,563
1141,20,right,female,2,40,常人,T.bmp,Good,No,m,m,1,880
1141,20,right,female,2,41,恶人,S.bmp,Bad,Yes,n,n,1,502
1141,20,right,female,2,42,恶人,C.bmp,Normal,No,m,m,1,626
1141,20,right,female,2,43,常人,C.bmp,Normal,Yes,n,n,1,596
1141,20,right,female,2,44,常人,S.bmp,Bad,No,m,m,1,643
1141,20,right,female,2,45,恶人,T.bmp,Good,No,m,n,0,420
1141,20,right,female,2,46,善人,S.bmp,Bad,No,m,m,1,736
1141,20,right,female,2,47,常人,C.bmp,Normal,Yes,n,n,1,706
1141,20,right,female,2,48,恶人,S.bmp,Bad,Yes,n,n,1,714
1141,20,right,female,2,49,常人,C.bmp,Normal,Yes,n,m,0,645
1141,20,right,female,2,50,常人,S.bmp,Bad,No,m,m,1,731
1141,20,right,female,2,51,恶人,S.bmp,Bad,Yes,n,n,1,662
1141,20,right,female,2,52,常人,C.bmp,Normal,Yes,n,n,1,901
1141,20,right,female,2,53,善人,C.bmp,Normal,No,m,n,0,448
1141,20,right,female,2,54,善人,S.bmp,Bad,No,m,n,0,611
1141,20,right,female,2,55,善人,T.bmp,Good,Yes,n,n,1,543
1141,20,right,female,2,56,恶人,T.bmp,Good,No,m,m,1,705
1141,20,right,female,2,57,善人,T.bmp,Good,Yes,n,n,1,867
1141,20,right,female,2,58,恶人,C.bmp,Normal,No,m,m,1,721
1141,20,right,female,2,59,常人,T.bmp,Good,No,m,n,0,807
1141,20,right,female,2,60,恶人,S.bmp,Bad,Yes,n,m,0,545
1141,20,right,female,3,1,善人,C.bmp,Normal,No,m,n,0,509
1141,20,right,female,3,2,恶人,C.bmp,Normal,No,m,m,1,748
1141,20,right,female,3,3,常人,S.bmp,Bad,No,m,m,1,757
1141,20,right,female,3,4,恶人,S.bmp,Bad,Yes,n,n,1,688
1141,20,right,female,3,5,常人,C.bmp,Normal,Yes,n,n,1,977
1141,20,right,female,3,6,常人,C.bmp,Normal,Yes,n,n,1,456
1141,20,right,female,3,7,善人,S.bmp,Bad,No,m,m,1,657
1141,20,right,female,3,8,恶人,T.bmp,Good,No,m,n,0,935
1141,20,right,female,3,9,常人,T.bmp,Good,No,m,m,1,828
1141,20,right,female,3,10,善人,T.bmp,Good,Yes,n,n,1,682
1141,20,right,female,3,11,善人,T.bmp,Good,Yes,n,n,1,536
1141,20,right,female,3,12,恶人,S.bmp,Bad,Yes,n,n,1,698
1141,20,right,female,3,13,善人,T.bmp,Good,Yes,n,n,1,707
1141,20,right,female,3,14,恶人,C.bmp,Normal,No,m,m,1,600
1141,20,right,female,3,15,恶人,S.bmp,Bad,Yes,n,n,1,608
1141,20,right,female,3,16,常人,T.bmp,Good,No,m,m,1,887
1141,20,right,female,3,17,善人,T.bmp,Good,Yes,n,n,1,471
1141,20,right,female,3,18,恶人,T.bmp,Good,No,m,m,1,556
1141,20,right,female,3,19,常人,S.bmp,Bad,No,m,n,0,410
1141,20,right,female,3,20,善人,S.bmp,Bad,No,m,n,0,573
1141,20,right,female,3,21,恶人,S.bmp,Bad,Yes,n,m,0,669
1141,20,right,female,3,22,善人,C.bmp,Normal,No,m,,0,0
1141,20,right,female,3,23,常人,C.bmp,Normal,Yes,n,n,1,454
1141,20,right,female,3,24,常人,C.bmp,Normal,Yes,n,n,1,462
1141,20,right,female,3,25,常人,C.bmp,Normal,Yes,n,n,1,393
1141,20,right,female,3,26,恶人,S.bmp,Bad,Yes,n,m,0,479
1141,20,right,female,3,27,善人,S.bmp,Bad,No,m,m,1,680
1141,20,right,female,3,28,常人,T.bmp,Good,No,m,n,0,688
1141,20,right,female,3,29,善人,C.bmp,Normal,No,m,n,0,696
1141,20,right,female,3,30,常人,C.bmp,Normal,Yes,n,m,0,589
1141,20,right,female,3,31,恶人,S.bmp,Bad,Yes,n,n,1,637
1141,20,right,female,3,32,善人,T.bmp,Good,Yes,n,n,1,607
1141,20,right,female,3,33,善人,T.bmp,Good,Yes,n,n,1,461
1141,20,right,female,3,34,恶人,T.bmp,Good,No,m,m,1,585
1141,20,right,female,3,35,恶人,C.bmp,Normal,No,m,m,1,864
1141,20,right,female,3,36,常人,S.bmp,Bad,No,m,m,1,718
1141,20,right,female,3,37,常人,C.bmp,Normal,Yes,n,n,1,1084
1141,20,right,female,3,38,恶人,T.bmp,Good,No,m,m,1,861
1141,20,right,female,3,39,恶人,S.bmp,Bad,Yes,n,n,1,638
1141,20,right,female,3,40,善人,C.bmp,Normal,No,m,m,1,1032
1141,20,right,female,3,41,常人,C.bmp,Normal,Yes,n,n,1,665
1141,20,right,female,3,42,善人,T.bmp,Good,Yes,n,m,0,905
1141,20,right,female,3,43,善人,T.bmp,Good,Yes,n,n,1,528
1141,20,right,female,3,44,恶人,C.bmp,Normal,No,m,m,1,662
1141,20,right,female,3,45,恶人,S.bmp,Bad,Yes,n,n,1,594
1141,20,right,female,3,46,善人,S.bmp,Bad,No,m,m,1,833
1141,20,right,female,3,47,常人,T.bmp,Good,No,m,n,0,456
1141,20,right,female,3,48,常人,S.bmp,Bad,No,m,m,1,734
1141,20,right,female,3,49,恶人,C.bmp,Normal,No,m,n,0,742
1141,20,right,female,3,50,常人,C.bmp,Normal,Yes,n,n,1,725
1141,20,right,female,3,51,善人,T.bmp,Good,Yes,n,n,1,810
1141,20,right,female,3,52,恶人,S.bmp,Bad,Yes,n,m,0,587
1141,20,right,female,3,53,常人,C.bmp,Normal,Yes,n,n,1,944
1141,20,right,female,3,54,恶人,S.bmp,Bad,Yes,n,n,1,528
1141,20,right,female,3,55,善人,T.bmp,Good,Yes,n,n,1,767
1141,20,right,female,3,56,善人,C.bmp,Normal,No,m,,0,0
1141,20,right,female,3,57,恶人,T.bmp,Good,No,m,n,0,939
1141,20,right,female,3,58,常人,T.bmp,Good,No,m,n,0,793
1141,20,right,female,3,59,常人,S.bmp,Bad,No,m,m,1,801
1141,20,right,female,3,60,善人,S.bmp,Bad,No,m,n,0,694
1141,20,right,female,4,1,恶人,S.bmp,Bad,Yes,n,n,1,772
1141,20,right,female,4,2,恶人,C.bmp,Normal,No,m,m,1,664
1141,20,right,female,4,3,恶人,S.bmp,Bad,Yes,n,n,1,557
1141,20,right,female,4,4,常人,C.bmp,Normal,Yes,n,n,1,912
1141,20,right,female,4,5,常人,C.bmp,Normal,Yes,n,n,1,535
1141,20,right,female,4,6,善人,T.bmp,Good,Yes,n,n,1,582
1141,20,right,female,4,7,恶人,T.bmp,Good,No,m,n,0,668
1141,20,right,female,4,8,善人,S.bmp,Bad,No,m,n,0,562
1141,20,right,female,4,9,善人,T.bmp,Good,Yes,n,n,1,493
1141,20,right,female,4,10,常人,T.bmp,Good,No,m,m,1,782
1141,20,right,female,4,11,善人,C.bmp,Normal,No,m,m,1,906
1141,20,right,female,4,12,常人,S.bmp,Bad,No,m,m,1,838
1141,20,right,female,4,13,善人,T.bmp,Good,Yes,n,n,1,615
1141,20,right,female,4,14,恶人,C.bmp,Normal,No,m,m,1,816
1141,20,right,female,4,15,常人,C.bmp,Normal,Yes,n,n,1,708
1141,20,right,female,4,16,常人,C.bmp,Normal,Yes,n,n,1,871
1141,20,right,female,4,17,恶人,S.bmp,Bad,Yes,n,n,1,764
1141,20,right,female,4,18,恶人,T.bmp,Good,No,m,m,1,696
1141,20,right,female,4,19,常人,T.bmp,Good,No,m,n,0,599
1141,20,right,female,4,20,善人,S.bmp,Bad,No,m,,0,0
1141,20,right,female,4,21,常人,S.bmp,Bad,No,m,m,1,809
1141,20,right,female,4,22,善人,T.bmp,Good,Yes,n,n,1,586
1141,20,right,female,4,23,善人,C.bmp,Normal,No,m,m,1,825
1141,20,right,female,4,24,恶人,S.bmp,Bad,Yes,n,n,1,641
1141,20,right,female,4,25,善人,S.bmp,Bad,No,m,n,0,726
1141,20,right,female,4,26,常人,T.bmp,Good,No,m,m,1,850
1141,20,right,female,4,27,恶人,S.bmp,Bad,Yes,n,n,1,782
1141,20,right,female,4,28,恶人,S.bmp,Bad,Yes,n,n,1,559
1141,20,right,female,4,29,常人,C.bmp,Normal,Yes,n,m,0,760
1141,20,right,female,4,30,善人,T.bmp,Good,Yes,n,n,1,575
1141,20,right,female,4,31,恶人,C.bmp,Normal,No,m,,0,0
1141,20,right,female,4,32,恶人,T.bmp,Good,No,m,n,0,592
1141,20,right,female,4,33,善人,T.bmp,Good,Yes,n,n,1,909
1141,20,right,female,4,34,善人,C.bmp,Normal,No,m,m,1,658
1141,20,right,female,4,35,常人,C.bmp,Normal,Yes,n,n,1,551
1141,20,right,female,4,36,常人,S.bmp,Bad,No,m,m,1,520
1141,20,right,female,4,37,恶人,S.bmp,Bad,Yes,n,n,1,529
1141,20,right,female,4,38,善人,C.bmp,Normal,No,m,n,0,614
1141,20,right,female,4,39,恶人,T.bmp,Good,No,m,n,0,739
1141,20,right,female,4,40,常人,C.bmp,Normal,Yes,n,n,1,632
1141,20,right,female,4,41,恶人,C.bmp,Normal,No,m,m,1,641
1141,20,right,female,4,42,恶人,S.bmp,Bad,Yes,n,m,0,688
1141,20,right,female,4,43,常人,T.bmp,Good,No,m,n,0,852
1141,20,right,female,4,44,善人,T.bmp,Good,Yes,n,n,1,783
1141,20,right,female,4,45,善人,T.bmp,Good,Yes,n,n,1,522
1141,20,right,female,4,46,常人,C.bmp,Normal,Yes,n,n,1,646
1141,20,right,female,4,47,善人,S.bmp,Bad,No,m,n,0,770
1141,20,right,female,4,48,常人,S.bmp,Bad,No,m,m,1,778
1141,20,right,female,4,49,善人,T.bmp,Good,Yes,n,n,1,632
1141,20,right,female,4,50,常人,C.bmp,Normal,Yes,n,n,1,834
1141,20,right,female,4,51,恶人,C.bmp,Normal,No,m,m,1,803
1141,20,right,female,4,52,善人,C.bmp,Normal,No,m,n,0,696
1141,20,right,female,4,53,常人,S.bmp,Bad,No,m,m,1,1013
1141,20,right,female,4,54,善人,S.bmp,Bad,No,m,m,1,906
1141,20,right,female,4,55,常人,C.bmp,Normal,Yes,n,n,1,644
1141,20,right,female,4,56,恶人,S.bmp,Bad,Yes,n,m,0,576
1141,20,right,female,4,57,恶人,T.bmp,Good,No,m,m,1,662
1141,20,right,female,4,58,常人,T.bmp,Good,No,m,m,1,786
1141,20,right,female,4,59,善人,T.bmp,Good,Yes,n,m,0,910
1141,20,right,female,4,60,恶人,S.bmp,Bad,Yes,n,n,1,881
1141,20,right,female,5,1,善人,S.bmp,Bad,No,m,m,1,651
1141,20,right,female,5,2,常人,C.bmp,Normal,Yes,n,n,1,632
1141,20,right,female,5,3,善人,T.bmp,Good,Yes,n,m,0,679
1141,20,right,female,5,4,常人,S.bmp,Bad,No,m,m,1,803
1141,20,right,female,5,5,恶人,T.bmp,Good,No,m,m,1,927
1141,20,right,female,5,6,善人,C.bmp,Normal,No,m,n,0,627
1141,20,right,female,5,7,恶人,C.bmp,Normal,No,m,m,1,685
1141,20,right,female,5,8,常人,C.bmp,Normal,Yes,n,n,1,770
1141,20,right,female,5,9,恶人,S.bmp,Bad,Yes,n,n,1,701
1141,20,right,female,5,10,善人,T.bmp,Good,Yes,n,n,1,671
1141,20,right,female,5,11,常人,T.bmp,Good,No,m,m,1,718
1141,20,right,female,5,12,恶人,S.bmp,Bad,Yes,n,n,1,534
1141,20,right,female,5,13,善人,C.bmp,Normal,No,m,n,0,851
1141,20,right,female,5,14,善人,T.bmp,Good,Yes,n,n,1,975
1141,20,right,female,5,15,恶人,S.bmp,Bad,Yes,n,n,1,598
1141,20,right,female,5,16,常人,S.bmp,Bad,No,m,m,1,722
1141,20,right,female,5,17,常人,C.bmp,Normal,Yes,n,n,1,499
1141,20,right,female,5,18,善人,S.bmp,Bad,No,m,m,1,673
1141,20,right,female,5,19,常人,T.bmp,Good,No,m,n,0,488
1141,20,right,female,5,20,恶人,S.bmp,Bad,Yes,n,n,1,574
1141,20,right,female,5,21,善人,T.bmp,Good,Yes,n,n,1,661
1141,20,right,female,5,22,恶人,T.bmp,Good,No,m,m,1,631
1141,20,right,female,5,23,常人,C.bmp,Normal,Yes,n,n,1,717
1141,20,right,female,5,24,恶人,C.bmp,Normal,No,m,m,1,648
1141,20,right,female,5,25,恶人,T.bmp,Good,No,m,m,1,695
1141,20,right,female,5,26,常人,C.bmp,Normal,Yes,n,n,1,626
1141,20,right,female,5,27,恶人,S.bmp,Bad,Yes,n,m,0,673
1141,20,right,female,5,28,善人,C.bmp,Normal,No,m,n,0,605
1141,20,right,female,5,29,常人,C.bmp,Normal,Yes,n,n,1,739
1141,20,right,female,5,30,恶人,S.bmp,Bad,Yes,n,n,1,632
1141,20,right,female,5,31,善人,S.bmp,Bad,No,m,m,1,602
1141,20,right,female,5,32,善人,T.bmp,Good,Yes,n,n,1,649
1141,20,right,female,5,33,善人,T.bmp,Good,Yes,n,n,1,542
1141,20,right,female,5,34,常人,T.bmp,Good,No,m,m,1,676
1141,20,right,female,5,35,常人,S.bmp,Bad,No,m,m,1,762
1141,20,right,female,5,36,恶人,C.bmp,Normal,No,m,m,1,770
1141,20,right,female,5,37,常人,C.bmp,Normal,Yes,n,,0,0
1141,20,right,female,5,38,常人,T.bmp,Good,No,m,n,0,517
1141,20,right,female,5,39,恶人,S.bmp,Bad,Yes,n,n,1,719
1141,20,right,female,5,40,善人,C.bmp,Normal,No,m,n,0,573
1141,20,right,female,5,41,恶人,T.bmp,Good,No,m,m,1,592
1141,20,right,female,5,42,常人,C.bmp,Normal,Yes,n,n,1,794
1141,20,right,female,5,43,善人,S.bmp,Bad,No,m,n,0,918
1141,20,right,female,5,44,恶人,C.bmp,Normal,No,m,m,1,657
1141,20,right,female,5,45,善人,T.bmp,Good,Yes,n,n,1,753
1141,20,right,female,5,46,常人,S.bmp,Bad,No,m,m,1,800
1141,20,right,female,5,47,善人,T.bmp,Good,Yes,n,n,1,577
1141,20,right,female,5,48,恶人,S.bmp,Bad,Yes,n,n,1,778
1141,20,right,female,5,49,常人,C.bmp,Normal,Yes,n,n,1,633
1141,20,right,female,5,50,善人,C.bmp,Normal,No,m,n,0,448
1141,20,right,female,5,51,善人,T.bmp,Good,Yes,n,n,1,611
1141,20,right,female,5,52,恶人,C.bmp,Normal,No,m,m,1,619
1141,20,right,female,5,53,常人,C.bmp,Normal,Yes,n,m,0,744
1141,20,right,female,5,54,恶人,S.bmp,Bad,Yes,n,n,1,868
1141,20,right,female,5,55,善人,T.bmp,Good,Yes,n,n,1,645
1141,20,right,female,5,56,恶人,T.bmp,Good,No,m,m,1,692
1141,20,right,female,5,57,善人,S.bmp,Bad,No,m,n,0,932
1141,20,right,female,5,58,常人,T.bmp,Good,No,m,m,1,709
1141,20,right,female,5,59,恶人,S.bmp,Bad,Yes,n,n,1,624
1141,20,right,female,5,60,常人,S.bmp,Bad,No,m,m,1,787
1141,20,right,female,6,1,常人,T.bmp,Good,No,m,n,0,596
1141,20,right,female,6,2,善人,C.bmp,Normal,No,m,n,0,604
1141,20,right,female,6,3,恶人,T.bmp,Good,No,m,m,1,613
1141,20,right,female,6,4,善人,T.bmp,Good,Yes,n,n,1,621
1141,20,right,female,6,5,恶人,S.bmp,Bad,Yes,n,n,1,591
1141,20,right,female,6,6,善人,T.bmp,Good,Yes,n,n,1,561
1141,20,right,female,6,7,恶人,S.bmp,Bad,Yes,n,n,1,762
1141,20,right,female,6,8,常人,C.bmp,Normal,Yes,n,n,1,550
1141,20,right,female,6,9,常人,S.bmp,Bad,No,m,m,1,674
1141,20,right,female,6,10,恶人,C.bmp,Normal,No,m,m,1,721
1141,20,right,female,6,11,善人,S.bmp,Bad,No,m,m,1,576
1141,20,right,female,6,12,常人,C.bmp,Normal,Yes,n,n,1,430
1141,20,right,female,6,13,常人,C.bmp,Normal,Yes,n,m,0,631
1141,20,right,female,6,14,善人,T.bmp,Good,Yes,n,n,1,563
1141,20,right,female,6,15,常人,S.bmp,Bad,No,m,m,1,571
1141,20,right,female,6,16,恶人,S.bmp,Bad,Yes,n,n,1,425
1141,20,right,female,6,17,善人,S.bmp,Bad,No,m,n,0,588
1141,20,right,female,6,18,恶人,T.bmp,Good,No,m,m,1,713
1141,20,right,female,6,19,常人,C.bmp,Normal,Yes,n,n,1,490
1141,20,right,female,6,20,恶人,C.bmp,Normal,No,m,m,1,625
1141,20,right,female,6,21,恶人,S.bmp,Bad,Yes,n,m,0,557
1141,20,right,female,6,22,善人,C.bmp,Normal,No,m,n,0,449
1141,20,right,female,6,23,善人,T.bmp,Good,Yes,n,n,1,612
1141,20,right,female,6,24,常人,T.bmp,Good,No,m,m,1,736
1141,20,right,female,6,25,常人,C.bmp,Normal,Yes,n,n,1,668
1141,20,right,female,6,26,善人,C.bmp,Normal,No,m,m,1,869
1141,20,right,female,6,27,常人,C.bmp,Normal,Yes,n,n,1,800
1141,20,right,female,6,28,恶人,C.bmp,Normal,No,m,m,1,616
1141,20,right,female,6,29,恶人,T.bmp,Good,No,m,m,1,856
1141,20,right,female,6,30,恶人,S.bmp,Bad,Yes,n,n,1,633
1141,20,right,female,6,31,善人,T.bmp,Good,Yes,n,n,1,796
1141,20,right,female,6,32,常人,T.bmp,Good,No,m,n,0,496
1141,20,right,female,6,33,善人,T.bmp,Good,Yes,n,m,0,708
1141,20,right,female,6,34,恶人,S.bmp,Bad,Yes,n,n,1,562
1141,20,right,female,6,35,善人,S.bmp,Bad,No,m,m,1,620
1141,20,right,female,6,36,常人,S.bmp,Bad,No,m,m,1,783
1141,20,right,female,6,37,常人,S.bmp,Bad,No,m,m,1,521
1141,20,right,female,6,38,恶人,S.bmp,Bad,Yes,n,n,1,607
1141,20,right,female,6,39,常人,C.bmp,Normal,Yes,n,n,1,693
1141,20,right,female,6,40,善人,C.bmp,Normal,No,m,n,0,702
1141,20,right,female,6,41,善人,T.bmp,Good,Yes,n,n,1,556
1141,20,right,female,6,42,常人,T.bmp,Good,No,m,n,0,680
1141,20,right,female,6,43,善人,T.bmp,Good,Yes,n,n,1,650
1141,20,right,female,6,44,善人,S.bmp,Bad,No,m,m,1,697
1141,20,right,female,6,45,常人,C.bmp,Normal,Yes,n,n,1,744
1141,20,right,female,6,46,恶人,C.bmp,Normal,No,m,m,1,637
1141,20,right,female,6,47,恶人,S.bmp,Bad,Yes,n,m,0,723
1141,20,right,female,6,48,恶人,T.bmp,Good,No,m,m,1,770
1141,20,right,female,6,49,善人,T.bmp,Good,Yes,n,n,1,509
1141,20,right,female,6,50,恶人,S.bmp,Bad,Yes,n,m,0,594
1141,20,right,female,6,51,善人,T.bmp,Good,Yes,n,n,1,641
1141,20,right,female,6,52,常人,S.bmp,Bad,No,m,m,1,573
1141,20,right,female,6,53,常人,T.bmp,Good,No,m,n,0,504
1141,20,right,female,6,54,善人,S.bmp,Bad,No,m,n,0,590
1141,20,right,female,6,55,常人,C.bmp,Normal,Yes,n,n,1,907
1141,20,right,female,6,56,恶人,C.bmp,Normal,No,m,m,1,915
1141,20,right,female,6,57,常人,C.bmp,Normal,Yes,n,n,1,731
1141,20,right,female,6,58,恶人,S.bmp,Bad,Yes,n,m,0,546
1141,20,right,female,6,59,善人,C.bmp,Normal,No,m,m,1,604
1141,20,right,female,6,60,恶人,T.bmp,Good,No,m,m,1,652
1142,19,right,female,,1,善人,S.bmp,Good,Yes,m,,0,0
1142,19,right,female,,2,常人,T.bmp,Normal,Yes,m,,0,0
1142,19,right,female,,3,常人,T.bmp,Normal,Yes,m,,0,0
1142,19,right,female,,4,善人,C.bmp,Bad,No,n,,0,0
1142,19,right,female,,5,常人,C.bmp,Bad,No,n,,0,0
1142,19,right,female,,6,善人,S.bmp,Good,Yes,m,,0,0
1142,19,right,female,,7,恶人,T.bmp,Normal,No,n,,0,0
1142,19,right,female,,8,恶人,C.bmp,Bad,Yes,m,n,0,443
1142,19,right,female,,9,恶人,S.bmp,Good,No,n,n,1,480
1142,19,right,female,,10,常人,S.bmp,Good,No,n,m,0,441
1142,19,right,female,,11,善人,T.bmp,Normal,No,n,n,1,440
1142,19,right,female,,12,恶人,C.bmp,Bad,Yes,m,n,0,439
1142,19,right,female,,13,善人,S.bmp,Good,Yes,m,n,0,305
1142,19,right,female,,14,常人,C.bmp,Bad,No,n,n,1,495
1142,19,right,female,,15,善人,C.bmp,Bad,No,n,n,1,418
1142,19,right,female,,16,恶人,S.bmp,Good,No,n,n,1,302
1142,19,right,female,,17,常人,S.bmp,Good,No,n,n,1,416
1142,19,right,female,,18,善人,S.bmp,Good,Yes,m,n,0,456
1142,19,right,female,,19,善人,T.bmp,Normal,No,n,m,0,455
1142,19,right,female,,20,恶人,C.bmp,Bad,Yes,m,n,0,377
1142,19,right,female,,21,恶人,T.bmp,Normal,No,n,n,1,222
1142,19,right,female,,22,常人,T.bmp,Normal,Yes,m,n,0,336
1142,19,right,female,,23,常人,T.bmp,Normal,Yes,m,m,1,335
1142,19,right,female,,24,恶人,C.bmp,Bad,Yes,m,n,0,334
1142,19,right,female,1,1,恶人,C.bmp,Bad,Yes,m,n,0,533
1142,19,right,female,1,2,常人,T.bmp,Normal,Yes,m,m,1,417
1142,19,right,female,1,3,善人,T.bmp,Normal,No,n,n,1,340
1142,19,right,female,1,4,善人,S.bmp,Good,Yes,m,n,0,264
1142,19,right,female,1,5,常人,T.bmp,Normal,Yes,m,n,0,378
1142,19,right,female,1,6,善人,C.bmp,Bad,No,n,,0,0
1142,19,right,female,1,7,常人,S.bmp,Good,No,n,n,1,567
1142,19,right,female,1,8,恶人,C.bmp,Bad,Yes,m,n,0,374
1142,19,right,female,1,9,善人,S.bmp,Good,Yes,m,n,0,412
1142,19,right,female,1,10,恶人,S.bmp,Good,No,n,n,1,411
1142,19,right,female,1,11,恶人,T.bmp,Normal,No,n,n,1,333
1142,19,right,female,1,12,常人,C.bmp,Bad,No,n,n,1,217
1142,19,right,female,1,13,善人,T.bmp,Normal,No,n,n,1,254
1142,19,right,female,1,14,善人,C.bmp,Bad,No,n,n,1,291
1142,19,right,female,1,15,常人,C.bmp,Bad,No,n,n,1,290
1142,19,right,female,1,16,善人,S.bmp,Good,Yes,m,m,1,250
1142,19,right,female,1,17,恶人,C.bmp,Bad,Yes,m,m,1,288
1142,19,right,female,1,18,常人,T.bmp,Normal,Yes,m,m,1,248
1142,19,right,female,1,19,恶人,S.bmp,Good,No,n,n,1,247
1142,19,right,female,1,20,常人,T.bmp,Normal,Yes,m,m,1,246
1142,19,right,female,1,21,常人,S.bmp,Good,No,n,,0,0
1142,19,right,female,1,22,恶人,C.bmp,Bad,Yes,m,m,1,513
1142,19,right,female,1,23,善人,S.bmp,Good,Yes,m,m,1,320
1142,19,right,female,1,24,恶人,T.bmp,Normal,No,n,,0,0
1142,19,right,female,1,25,恶人,S.bmp,Good,No,n,n,1,548
1142,19,right,female,1,26,常人,S.bmp,Good,No,n,m,0,432
1142,19,right,female,1,27,常人,T.bmp,Normal,Yes,m,n,0,431
1142,19,right,female,1,28,善人,T.bmp,Normal,No,n,m,0,353
1142,19,right,female,1,29,常人,T.bmp,Normal,Yes,m,n,0,276
1142,19,right,female,1,30,善人,S.bmp,Good,Yes,m,n,0,390
1142,19,right,female,1,31,恶人,T.bmp,Normal,No,n,n,1,388
1142,19,right,female,1,32,善人,C.bmp,Bad,No,n,n,1,272
1142,19,right,female,1,33,常人,C.bmp,Bad,No,n,n,1,271
1142,19,right,female,1,34,恶人,C.bmp,Bad,Yes,m,,0,0
1142,19,right,female,1,35,善人,S.bmp,Good,Yes,m,,0,0
1142,19,right,female,1,36,恶人,C.bmp,Bad,Yes,m,n,0,421
1142,19,right,female,1,37,恶人,C.bmp,Bad,Yes,m,n,0,381
1142,19,right,female,1,38,常人,T.bmp,Normal,Yes,m,n,0,610
1142,19,right,female,1,39,善人,C.bmp,Bad,No,n,m,0,495
1142,19,right,female,1,40,恶人,T.bmp,Normal,No,n,n,1,418
1142,19,right,female,1,41,恶人,C.bmp,Bad,Yes,m,n,0,378
1142,19,right,female,1,42,常人,C.bmp,Bad,No,n,n,1,415
1142,19,right,female,1,43,常人,S.bmp,Good,No,n,n,1,453
1142,19,right,female,1,44,善人,S.bmp,Good,Yes,m,n,0,451
1142,19,right,female,1,45,善人,T.bmp,Normal,No,n,m,0,450
1142,19,right,female,1,46,常人,T.bmp,Normal,Yes,m,n,0,219
1142,19,right,female,1,47,善人,S.bmp,Good,Yes,m,m,1,295
1142,19,right,female,1,48,恶人,S.bmp,Good,No,n,m,0,294
1142,19,right,female,1,49,善人,C.bmp,Bad,No,n,n,1,331
1142,19,right,female,1,50,善人,S.bmp,Good,Yes,m,n,0,330
1142,19,right,female,1,51,恶人,S.bmp,Good,No,n,m,0,290
1142,19,right,female,1,52,恶人,C.bmp,Bad,Yes,m,n,0,251
1142,19,right,female,1,53,常人,T.bmp,Normal,Yes,m,m,1,288
1142,19,right,female,1,54,恶人,C.bmp,Bad,Yes,m,m,1,364
1142,19,right,female,1,55,常人,T.bmp,Normal,Yes,m,m,1,297
1142,19,right,female,1,56,常人,C.bmp,Bad,No,n,m,0,258
1142,19,right,female,1,57,善人,T.bmp,Normal,No,n,n,1,180
1142,19,right,female,1,58,恶人,T.bmp,Normal,No,n,m,0,333
1142,19,right,female,1,59,常人,S.bmp,Good,No,n,n,1,255
1142,19,right,female,1,60,善人,S.bmp,Good,Yes,m,n,0,331
1142,19,right,female,2,1,常人,C.bmp,Bad,No,n,,0,0
1142,19,right,female,2,2,善人,C.bmp,Bad,No,n,n,1,362
1142,19,right,female,2,3,善人,T.bmp,Normal,No,n,n,1,399
1142,19,right,female,2,4,常人,T.bmp,Normal,Yes,m,n,0,244
1142,19,right,female,2,5,恶人,S.bmp,Good,No,n,m,0,358
1142,19,right,female,2,6,善人,S.bmp,Good,Yes,m,n,0,242
1142,19,right,female,2,7,恶人,C.bmp,Bad,Yes,m,n,0,280
1142,19,right,female,2,8,善人,S.bmp,Good,Yes,m,m,1,394
1142,19,right,female,2,9,恶人,T.bmp,Normal,No,n,n,1,316
1142,19,right,female,2,10,常人,T.bmp,Normal,Yes,m,n,0,238
1142,19,right,female,2,11,恶人,C.bmp,Bad,Yes,m,m,1,286
1142,19,right,female,2,12,常人,S.bmp,Good,No,n,n,1,247
1142,19,right,female,2,13,常人,S.bmp,Good,No,n,n,1,322
1142,19,right,female,2,14,常人,T.bmp,Normal,Yes,m,m,1,398
1142,19,right,female,2,15,善人,T.bmp,Normal,No,n,n,1,320
1142,19,right,female,2,16,善人,C.bmp,Bad,No,n,m,0,243
1142,19,right,female,2,17,恶人,T.bmp,Normal,No,n,n,1,252
1142,19,right,female,2,18,恶人,C.bmp,Bad,Yes,m,m,1,289
1142,19,right,female,2,19,常人,T.bmp,Normal,Yes,m,n,0,250
1142,19,right,female,2,20,善人,S.bmp,Good,Yes,m,m,1,249
1142,19,right,female,2,21,恶人,C.bmp,Bad,Yes,m,n,0,286
1142,19,right,female,2,22,善人,S.bmp,Good,Yes,m,m,1,247
1142,19,right,female,2,23,恶人,S.bmp,Good,No,n,n,1,246
1142,19,right,female,2,24,常人,C.bmp,Bad,No,n,m,0,284
1142,19,right,female,2,25,常人,S.bmp,Good,No,n,n,1,436
1142,19,right,female,2,26,恶人,S.bmp,Good,No,n,n,1,397
1142,19,right,female,2,27,常人,C.bmp,Bad,No,n,m,0,319
1142,19,right,female,2,28,常人,T.bmp,Normal,Yes,m,n,0,242
1142,19,right,female,2,29,恶人,T.bmp,Normal,No,n,m,0,279
1142,19,right,female,2,30,善人,C.bmp,Bad,No,n,n,1,239
1142,19,right,female,2,31,善人,S.bmp,Good,Yes,m,n,0,238
1142,19,right,female,2,32,恶人,C.bmp,Bad,Yes,m,m,1,237
1142,19,right,female,2,33,善人,S.bmp,Good,Yes,m,n,0,313
1142,19,right,female,2,34,恶人,C.bmp,Bad,Yes,m,m,1,235
1142,19,right,female,2,35,常人,T.bmp,Normal,Yes,m,m,1,272
1142,19,right,female,2,36,善人,T.bmp,Normal,No,n,m,0,425
1142,19,right,female,2,37,常人,T.bmp,Normal,Yes,m,n,0,232
1142,19,right,female,2,38,恶人,C.bmp,Bad,Yes,m,,0,0
1142,19,right,female,2,39,善人,T.bmp,Normal,No,n,,0,0
1142,19,right,female,2,40,善人,C.bmp,Bad,No,n,n,1,919
1142,19,right,female,2,41,善人,S.bmp,Good,Yes,m,m,1,306
1142,19,right,female,2,42,常人,S.bmp,Good,No,n,n,1,228
1142,19,right,female,2,43,恶人,S.bmp,Good,No,n,n,1,227
1142,19,right,female,2,44,善人,S.bmp,Good,Yes,m,,0,0
1142,19,right,female,2,45,恶人,C.bmp,Bad,Yes,m,,0,0
1142,19,right,female,2,46,恶人,T.bmp,Normal,No,n,m,0,810
1142,19,right,female,2,47,常人,T.bmp,Normal,Yes,m,n,0,234
1142,19,right,female,2,48,常人,C.bmp,Bad,No,n,m,0,310
1142,19,right,female,2,49,善人,C.bmp,Bad,No,n,n,1,281
1142,19,right,female,2,50,常人,S.bmp,Good,No,n,m,0,472
1142,19,right,female,2,51,常人,T.bmp,Normal,Yes,m,,0,0
1142,19,right,female,2,52,恶人,C.bmp,Bad,Yes,m,n,0,624
1142,19,right,female,2,53,常人,C.bmp,Bad,No,n,m,0,240
1142,19,right,female,2,54,善人,S.bmp,Good,Yes,m,n,0,277
1142,19,right,female,2,55,恶人,T.bmp,Normal,No,n,m,0,248
1142,19,right,female,2,56,善人,S.bmp,Good,Yes,m,m,1,94
1142,19,right,female,2,57,恶人,S.bmp,Good,No,n,m,0,284
1142,19,right,female,2,58,恶人,C.bmp,Bad,Yes,m,n,0,207
1142,19,right,female,2,59,善人,T.bmp,Normal,No,n,m,0,245
1142,19,right,female,2,60,常人,T.bmp,Normal,Yes,m,n,0,129
1142,19,right,female,3,1,常人,T.bmp,Normal,Yes,m,n,0,343
1142,19,right,female,3,2,恶人,C.bmp,Bad,Yes,m,m,1,534
1142,19,right,female,3,3,常人,C.bmp,Bad,No,n,m,0,505
1142,19,right,female,3,4,善人,T.bmp,Normal,No,n,n,1,466
1142,19,right,female,3,5,善人,S.bmp,Good,Yes,m,m,1,580
1142,19,right,female,3,6,恶人,T.bmp,Normal,No,n,n,1,349
1142,19,right,female,3,7,常人,T.bmp,Normal,Yes,m,m,1,654
1142,19,right,female,3,8,常人,S.bmp,Good,No,n,n,1,462
1142,19,right,female,3,9,恶人,C.bmp,Bad,Yes,m,m,1,307
1142,19,right,female,3,10,恶人,S.bmp,Good,No,n,n,1,279
1142,19,right,female,3,11,善人,S.bmp,Good,Yes,m,m,1,316
1142,19,right,female,3,12,善人,C.bmp,Bad,No,n,n,1,287
1142,19,right,female,3,13,善人,C.bmp,Bad,No,n,m,0,258
1142,19,right,female,3,14,常人,C.bmp,Bad,No,n,n,1,257
1142,19,right,female,3,15,恶人,T.bmp,Normal,No,n,n,1,296
1142,19,right,female,3,16,善人,S.bmp,Good,Yes,m,n,0,372
1142,19,right,female,3,17,恶人,S.bmp,Good,No,n,n,1,525
1142,19,right,female,3,18,恶人,C.bmp,Bad,Yes,m,n,0,486
1142,19,right,female,3,19,善人,S.bmp,Good,Yes,m,m,1,255
1142,19,right,female,3,20,常人,T.bmp,Normal,Yes,m,m,1,369
1142,19,right,female,3,21,恶人,C.bmp,Bad,Yes,m,n,0,291
1142,19,right,female,3,22,常人,S.bmp,Good,No,n,m,0,291
1142,19,right,female,3,23,常人,T.bmp,Normal,Yes,m,n,0,328
1142,19,right,female,3,24,善人,T.bmp,Normal,No,n,m,0,173
1142,19,right,female,3,25,恶人,T.bmp,Normal,No,n,n,1,249
1142,19,right,female,3,26,常人,S.bmp,Good,No,n,n,1,517
1142,19,right,female,3,27,常人,T.bmp,Normal,Yes,m,n,0,248
1142,19,right,female,3,28,善人,C.bmp,Bad,No,n,m,0,248
1142,19,right,female,3,29,常人,T.bmp,Normal,Yes,m,n,0,401
1142,19,right,female,3,30,恶人,C.bmp,Bad,Yes,m,m,1,324
1142,19,right,female,3,31,恶人,C.bmp,Bad,Yes,m,m,1,439
1142,19,right,female,3,32,恶人,S.bmp,Good,No,n,m,0,364
1142,19,right,female,3,33,善人,S.bmp,Good,Yes,m,n,0,134
1142,19,right,female,3,34,常人,C.bmp,Bad,No,n,m,0,441
1142,19,right,female,3,35,善人,T.bmp,Normal,No,n,m,0,288
1142,19,right,female,3,36,善人,S.bmp,Good,Yes,m,n,0,101
1142,19,right,female,3,37,恶人,C.bmp,Bad,Yes,m,m,1,159
1142,19,right,female,3,38,善人,C.bmp,Bad,No,n,m,0,46
1142,19,right,female,3,39,恶人,T.bmp,Normal,No,n,m,0,468
1142,19,right,female,3,40,善人,T.bmp,Normal,No,n,n,1,56
1142,19,right,female,3,41,常人,T.bmp,Normal,Yes,m,n,0,362
1142,19,right,female,3,42,恶人,S.bmp,Good,No,n,m,0,363
1142,19,right,female,3,43,常人,T.bmp,Normal,Yes,m,n,0,288
1142,19,right,female,3,44,善人,S.bmp,Good,Yes,m,n,0,96
1142,19,right,female,3,45,恶人,C.bmp,Bad,Yes,m,m,1,402
1142,19,right,female,3,46,常人,S.bmp,Good,No,n,m,0,289
1142,19,right,female,3,47,常人,C.bmp,Bad,No,n,m,0,175
1142,19,right,female,3,48,善人,S.bmp,Good,Yes,m,m,1,137
1142,19,right,female,3,49,善人,S.bmp,Good,Yes,m,n,0,101
1142,19,right,female,3,50,善人,S.bmp,Good,Yes,m,n,0,215
1142,19,right,female,3,51,常人,T.bmp,Normal,Yes,m,n,0,187
1142,19,right,female,3,52,善人,C.bmp,Bad,No,n,m,0,74
1142,19,right,female,3,53,常人,C.bmp,Bad,No,n,m,0,113
1142,19,right,female,3,54,常人,S.bmp,Good,No,n,n,1,74
1142,19,right,female,3,55,恶人,S.bmp,Good,No,n,n,1,113
1142,19,right,female,3,56,恶人,C.bmp,Bad,Yes,m,n,0,227
1142,19,right,female,3,57,恶人,C.bmp,Bad,Yes,m,m,1,74
1142,19,right,female,3,58,恶人,T.bmp,Normal,No,n,n,1,152
1142,19,right,female,3,59,常人,T.bmp,Normal,Yes,m,m,1,192
1142,19,right,female,3,60,善人,T.bmp,Normal,No,n,m,0,306
1142,19,right,female,4,1,恶人,C.bmp,Bad,Yes,m,n,0,304
1142,19,right,female,4,2,善人,S.bmp,Good,Yes,m,n,0,380
1142,19,right,female,4,3,善人,C.bmp,Bad,No,n,n,1,341
1142,19,right,female,4,4,常人,T.bmp,Normal,Yes,m,n,0,340
1142,19,right,female,4,5,恶人,T.bmp,Normal,No,n,m,0,339
1142,19,right,female,4,6,常人,T.bmp,Normal,Yes,m,n,0,273
1142,19,right,female,4,7,善人,S.bmp,Good,Yes,m,n,0,425
1142,19,right,female,4,8,善人,T.bmp,Normal,No,n,n,1,348
1142,19,right,female,4,9,恶人,S.bmp,Good,No,n,n,1,347
1142,19,right,female,4,10,恶人,C.bmp,Bad,Yes,m,n,0,422
1142,19,right,female,4,11,常人,S.bmp,Good,No,n,m,0,307
1142,19,right,female,4,12,常人,C.bmp,Bad,No,n,n,1,306
1142,19,right,female,4,13,常人,T.bmp,Normal,Yes,m,m,1,343
1142,19,right,female,4,14,常人,C.bmp,Bad,No,n,n,1,304
1142,19,right,female,4,15,常人,S.bmp,Good,No,n,n,1,226
1142,19,right,female,4,16,善人,S.bmp,Good,Yes,m,n,0,34
1142,19,right,female,4,17,善人,C.bmp,Bad,No,n,m,0,148
1142,19,right,female,4,18,常人,T.bmp,Normal,Yes,m,m,1,338
1142,19,right,female,4,19,恶人,S.bmp,Good,No,n,m,0,261
1142,19,right,female,4,20,恶人,C.bmp,Bad,Yes,m,,0,0
1142,19,right,female,4,21,善人,T.bmp,Normal,No,n,m,0,719
1142,19,right,female,4,22,恶人,T.bmp,Normal,No,n,m,0,375
1142,19,right,female,4,23,恶人,C.bmp,Bad,Yes,m,m,1,17
1142,19,right,female,4,24,善人,S.bmp,Good,Yes,m,m,1,710
1142,19,right,female,4,25,常人,C.bmp,Bad,No,n,m,0,364
1142,19,right,female,4,26,恶人,C.bmp,Bad,Yes,m,n,0,325
1142,19,right,female,4,27,常人,S.bmp,Good,No,n,m,0,147
1142,19,right,female,4,28,善人,S.bmp,Good,Yes,m,m,1,199
1142,19,right,female,4,29,善人,S.bmp,Good,Yes,m,m,1,20
1142,19,right,female,4,30,恶人,T.bmp,Normal,No,n,m,0,407
1142,19,right,female,4,31,恶人,S.bmp,Good,No,n,n,1,295
1142,19,right,female,4,32,恶人,C.bmp,Bad,Yes,m,n,0,78
1142,19,right,female,4,33,常人,T.bmp,Normal,Yes,m,m,1,117
1142,19,right,female,4,34,常人,T.bmp,Normal,Yes,m,m,1,82
1142,19,right,female,4,35,善人,T.bmp,Normal,No,n,m,0,251
1142,19,right,female,4,36,善人,C.bmp,Bad,No,n,n,1,137
1142,19,right,female,4,37,常人,T.bmp,Normal,Yes,m,n,0,63
1142,19,right,female,4,38,恶人,T.bmp,Normal,No,n,m,0,371
1142,19,right,female,4,39,善人,S.bmp,Good,Yes,m,n,0,909
1142,19,right,female,4,40,善人,S.bmp,Good,Yes,m,m,1,332
1142,19,right,female,4,41,恶人,C.bmp,Bad,Yes,m,n,0,255
1142,19,right,female,4,42,恶人,C.bmp,Bad,Yes,m,m,1,255
1142,19,right,female,4,43,常人,C.bmp,Bad,No,n,n,1,256
1142,19,right,female,4,44,善人,C.bmp,Bad,No,n,m,0,114
1142,19,right,female,4,45,常人,S.bmp,Good,No,n,m,0,269
1142,19,right,female,4,46,善人,T.bmp,Normal,No,n,m,0,2
1142,19,right,female,4,47,常人,T.bmp,Normal,Yes,m,n,0,116
1142,19,right,female,4,48,恶人,S.bmp,Good,No,n,n,1,269
1142,19,right,female,4,49,常人,T.bmp,Normal,Yes,m,,0,0
1142,19,right,female,4,50,善人,S.bmp,Good,Yes,m,n,0,240
1142,19,right,female,4,51,恶人,S.bmp,Good,No,n,m,0,315
1142,19,right,female,4,52,常人,C.bmp,Bad,No,n,n,1,161
1142,19,right,female,4,53,恶人,C.bmp,Bad,Yes,m,n,0,84
1142,19,right,female,4,54,善人,S.bmp,Good,Yes,m,n,0,198
1142,19,right,female,4,55,善人,C.bmp,Bad,No,n,n,1,274
1142,19,right,female,4,56,善人,T.bmp,Normal,No,n,m,0,322
1142,19,right,female,4,57,常人,S.bmp,Good,No,n,n,1,245
1142,19,right,female,4,58,恶人,C.bmp,Bad,Yes,m,n,0,321
1142,19,right,female,4,59,恶人,T.bmp,Normal,No,n,m,0,320
1142,19,right,female,4,60,常人,T.bmp,Normal,Yes,m,n,0,243
1142,19,right,female,5,1,常人,T.bmp,Normal,Yes,m,n,0,409
1142,19,right,female,5,2,恶人,S.bmp,Good,No,n,m,0,293
1142,19,right,female,5,3,恶人,C.bmp,Bad,Yes,m,n,0,292
1142,19,right,female,5,4,善人,T.bmp,Normal,No,n,n,1,368
1142,19,right,female,5,5,恶人,T.bmp,Normal,No,n,m,0,290
1142,19,right,female,5,6,常人,C.bmp,Bad,No,n,n,1,251
1142,19,right,female,5,7,善人,C.bmp,Bad,No,n,n,1,250
1142,19,right,female,5,8,常人,T.bmp,Normal,Yes,m,n,0,288
1142,19,right,female,5,9,善人,S.bmp,Good,Yes,m,m,1,402
1142,19,right,female,5,10,恶人,C.bmp,Bad,Yes,m,m,1,324
1142,19,right,female,5,11,常人,S.bmp,Good,No,n,m,0,324
1142,19,right,female,5,12,善人,S.bmp,Good,Yes,m,n,0,284
1142,19,right,female,5,13,善人,S.bmp,Good,Yes,m,n,0,168
1142,19,right,female,5,14,恶人,C.bmp,Bad,Yes,m,n,0,1013
1142,19,right,female,5,15,恶人,S.bmp,Good,No,n,n,1,907
1142,19,right,female,5,16,善人,C.bmp,Bad,No,n,n,1,446
1142,19,right,female,5,17,常人,C.bmp,Bad,No,n,n,1,277
1142,19,right,female,5,18,善人,S.bmp,Good,Yes,m,n,0,276
1142,19,right,female,5,19,常人,T.bmp,Normal,Yes,m,n,0,277
1142,19,right,female,5,20,恶人,C.bmp,Bad,Yes,m,n,0,47
1142,19,right,female,5,21,恶人,T.bmp,Normal,No,n,n,1,163
1142,19,right,female,5,22,常人,T.bmp,Normal,Yes,m,m,1,469
1142,19,right,female,5,23,善人,T.bmp,Normal,No,n,n,1,46
1142,19,right,female,5,24,常人,S.bmp,Good,No,n,m,0,107
1142,19,right,female,5,25,善人,S.bmp,Good,Yes,m,m,1,185
1142,19,right,female,5,26,常人,S.bmp,Good,No,n,m,0,159
1142,19,right,female,5,27,恶人,C.bmp,Bad,Yes,m,m,1,122
1142,19,right,female,5,28,恶人,T.bmp,Normal,No,n,n,1,85
1142,19,right,female,5,29,恶人,S.bmp,Good,No,n,n,1,213
1142,19,right,female,5,30,常人,T.bmp,Normal,Yes,m,m,1,176
1142,19,right,female,5,31,常人,C.bmp,Bad,No,n,n,1,151
1142,19,right,female,5,32,常人,T.bmp,Normal,Yes,m,n,0,115
1142,19,right,female,5,33,善人,C.bmp,Bad,No,n,n,1,40
1142,19,right,female,5,34,善人,S.bmp,Good,Yes,m,n,0,192
1142,19,right,female,5,35,善人,T.bmp,Normal,No,n,n,1,117
1142,19,right,female,5,36,恶人,C.bmp,Bad,Yes,m,n,0,311
1142,19,right,female,5,37,恶人,C.bmp,Bad,Yes,m,n,0,197
1142,19,right,female,5,38,恶人,C.bmp,Bad,Yes,m,n,0,45
1142,19,right,female,5,39,恶人,S.bmp,Good,No,n,n,1,84
1142,19,right,female,5,40,善人,S.bmp,Good,Yes,m,n,0,84
1142,19,right,female,5,41,恶人,T.bmp,Normal,No,n,m,0,86
1142,19,right,female,5,42,常人,T.bmp,Normal,Yes,m,m,1,203
1142,19,right,female,5,43,常人,T.bmp,Normal,Yes,m,m,1,165
1142,19,right,female,5,44,常人,S.bmp,Good,No,n,m,0,51
1142,19,right,female,5,45,善人,S.bmp,Good,Yes,m,m,1,25
1142,19,right,female,5,46,善人,T.bmp,Normal,No,n,m,0,64
1142,19,right,female,5,47,善人,C.bmp,Bad,No,n,m,0,103
1142,19,right,female,5,48,常人,C.bmp,Bad,No,n,m,0,104
1142,19,right,female,5,49,恶人,T.bmp,Normal,No,n,n,1,181
1142,19,right,female,5,50,善人,T.bmp,Normal,No,n,n,1,258
1142,19,right,female,5,51,恶人,S.bmp,Good,No,n,n,1,259
1142,19,right,female,5,52,恶人,C.bmp,Bad,Yes,m,n,0,260
1142,19,right,female,5,53,善人,S.bmp,Good,Yes,m,n,0,5
1142,19,right,female,5,54,常人,C.bmp,Bad,No,n,m,0,121
1142,19,right,female,5,55,常人,S.bmp,Good,No,n,n,1,85
1142,19,right,female,5,56,常人,T.bmp,Normal,Yes,m,m,1,317
1142,19,right,female,5,57,常人,T.bmp,Normal,Yes,m,n,0,214
1142,19,right,female,5,58,善人,C.bmp,Bad,No,n,n,1,227
1142,19,right,female,5,59,恶人,C.bmp,Bad,Yes,m,m,1,7
1142,19,right,female,5,60,善人,S.bmp,Good,Yes,m,n,0,316
1142,19,right,female,6,1,恶人,C.bmp,Bad,Yes,m,n,0,294
1142,19,right,female,6,2,恶人,S.bmp,Good,No,n,m,0,259
1142,19,right,female,6,3,善人,T.bmp,Normal,No,n,n,1,261
1142,19,right,female,6,4,善人,C.bmp,Bad,No,n,n,1,301
1142,19,right,female,6,5,常人,C.bmp,Bad,No,n,n,1,265
1142,19,right,female,6,6,恶人,C.bmp,Bad,Yes,m,n,0,192
1142,19,right,female,6,7,善人,S.bmp,Good,Yes,m,m,1,386
1142,19,right,female,6,8,常人,T.bmp,Normal,Yes,m,m,1,15
1142,19,right,female,6,9,常人,T.bmp,Normal,Yes,m,m,1,56
1142,19,right,female,6,10,恶人,T.bmp,Normal,No,n,m,0,69
1142,19,right,female,6,11,善人,S.bmp,Good,Yes,m,n,0,225
1142,19,right,female,6,12,常人,S.bmp,Good,No,n,m,0,223
1142,19,right,female,6,13,恶人,S.bmp,Good,No,n,m,0,147
1142,19,right,female,6,14,善人,S.bmp,Good,Yes,m,m,1,46
1142,19,right,female,6,15,恶人,C.bmp,Bad,Yes,m,m,1,277
1142,19,right,female,6,16,常人,S.bmp,Good,No,n,m,0,241
1142,19,right,female,6,17,常人,T.bmp,Normal,Yes,m,m,1,293
1142,19,right,female,6,18,善人,T.bmp,Normal,No,n,m,0,103
1142,19,right,female,6,19,恶人,C.bmp,Bad,Yes,m,n,0,146
1142,19,right,female,6,20,常人,C.bmp,Bad,No,n,n,1,35
1142,19,right,female,6,21,常人,T.bmp,Normal,Yes,m,n,0,458
1142,19,right,female,6,22,善人,C.bmp,Bad,No,n,n,1,320
1142,19,right,female,6,23,恶人,T.bmp,Normal,No,n,n,1,248
1142,19,right,female,6,24,善人,S.bmp,Good,Yes,m,n,0,214
1142,19,right,female,6,25,恶人,C.bmp,Bad,Yes,m,n,0,232
1142,19,right,female,6,26,常人,T.bmp,Normal,Yes,m,m,1,658
1142,19,right,female,6,27,善人,S.bmp,Good,Yes,m,m,1,441
1142,19,right,female,6,28,恶人,T.bmp,Normal,No,n,m,0,329
1142,19,right,female,6,29,常人,T.bmp,Normal,Yes,m,n,0,679
1142,19,right,female,6,30,善人,T.bmp,Normal,No,n,m,0,577
1142,19,right,female,6,31,恶人,S.bmp,Good,No,n,n,1,157
1142,19,right,female,6,32,善人,C.bmp,Bad,No,n,m,0,82
1142,19,right,female,6,33,善人,S.bmp,Good,Yes,m,n,0,275
1142,19,right,female,6,34,恶人,C.bmp,Bad,Yes,m,m,1,9
1142,19,right,female,6,35,常人,C.bmp,Bad,No,n,m,0,23
1142,19,right,female,6,36,常人,S.bmp,Good,No,n,m,0,27
1142,19,right,female,6,37,善人,S.bmp,Good,Yes,m,m,1,3
1142,19,right,female,6,38,恶人,S.bmp,Good,No,n,n,1,93
1142,19,right,female,6,39,常人,C.bmp,Bad,No,n,n,1,57
1142,19,right,female,6,40,善人,T.bmp,Normal,No,n,n,1,160
1142,19,right,female,6,41,常人,S.bmp,Good,No,n,n,1,239
1142,19,right,female,6,42,常人,T.bmp,Normal,Yes,m,n,0,10
1142,19,right,female,6,43,恶人,C.bmp,Bad,Yes,m,n,0,10
1142,19,right,female,6,44,常人,T.bmp,Normal,Yes,m,n,0,12
1142,19,right,female,6,45,恶人,T.bmp,Normal,No,n,n,1,128
1142,19,right,female,6,46,恶人,C.bmp,Bad,Yes,m,n,0,131
1142,19,right,female,6,47,善人,C.bmp,Bad,No,n,n,1,20
1142,19,right,female,6,48,善人,S.bmp,Good,Yes,m,m,1,150
1142,19,right,female,6,49,恶人,T.bmp,Normal,No,n,m,0,229
1142,19,right,female,6,50,常人,T.bmp,Normal,Yes,m,m,1,38
1142,19,right,female,6,51,常人,C.bmp,Bad,No,n,n,1,23
1142,19,right,female,6,52,常人,S.bmp,Good,No,n,n,1,181
1142,19,right,female,6,53,善人,C.bmp,Bad,No,n,n,1,89
1142,19,right,female,6,54,恶人,C.bmp,Bad,Yes,m,n,0,75
1142,19,right,female,6,55,善人,T.bmp,Normal,No,n,n,1,155
1142,19,right,female,6,56,常人,T.bmp,Normal,Yes,m,n,0,92
1142,19,right,female,6,57,善人,S.bmp,Good,Yes,m,n,0,212
1142,19,right,female,6,58,恶人,C.bmp,Bad,Yes,m,m,1,21
1142,19,right,female,6,59,善人,S.bmp,Good,Yes,m,m,1,178
1142,19,right,female,6,60,恶人,S.bmp,Good,No,n,m,0,115
1143,20,right,female,,1,常人,S.bmp,Normal,Yes,n,,0,0
1143,20,right,female,,2,恶人,T.bmp,Bad,Yes,n,,0,0
1143,20,right,female,,3,恶人,T.bmp,Bad,Yes,n,,0,0
1143,20,right,female,,4,善人,C.bmp,Good,Yes,n,,0,0
1143,20,right,female,,5,善人,S.bmp,Normal,No,m,,0,0
1143,20,right,female,,6,常人,T.bmp,Bad,No,m,,0,0
1143,20,right,female,,7,恶人,C.bmp,Good,No,m,,0,0
1143,20,right,female,,8,常人,C.bmp,Good,No,m,m,1,296
1143,20,right,female,,9,善人,C.bmp,Good,Yes,n,n,1,972
1143,20,right,female,,10,恶人,S.bmp,Normal,No,m,n,0,438
1143,20,right,female,,11,善人,T.bmp,Bad,No,m,m,1,580
1143,20,right,female,,12,常人,S.bmp,Normal,Yes,n,m,0,760
1143,20,right,female,,13,善人,C.bmp,Good,Yes,n,n,1,375
1143,20,right,female,,14,恶人,C.bmp,Good,No,m,n,0,478
1143,20,right,female,,15,善人,T.bmp,Bad,No,m,n,0,506
1143,20,right,female,,16,恶人,S.bmp,Normal,No,m,m,1,457
1143,20,right,female,,17,常人,S.bmp,Normal,Yes,n,m,0,1018
1143,20,right,female,,18,常人,C.bmp,Good,No,m,n,0,550
1143,20,right,female,,19,常人,S.bmp,Normal,Yes,n,m,0,653
1143,20,right,female,,20,常人,T.bmp,Bad,No,m,n,0,415
1143,20,right,female,,21,恶人,T.bmp,Bad,Yes,n,n,1,376
1143,20,right,female,,22,善人,S.bmp,Normal,No,m,m,1,327
1143,20,right,female,,23,善人,C.bmp,Good,Yes,n,n,1,365
1143,20,right,female,,24,恶人,T.bmp,Bad,Yes,n,m,0,316
1143,20,right,female,,25,恶人,S.bmp,Normal,No,m,,0,0
1143,20,right,female,,26,善人,C.bmp,Good,Yes,n,n,1,736
1143,20,right,female,,27,常人,S.bmp,Normal,Yes,n,m,0,839
1143,20,right,female,,28,常人,T.bmp,Bad,No,m,n,0,344
1143,20,right,female,,29,恶人,T.bmp,Bad,Yes,n,m,0,752
1143,20,right,female,,30,善人,T.bmp,Bad,No,m,n,0,513
1143,20,right,female,,31,常人,S.bmp,Normal,Yes,n,n,1,769
1143,20,right,female,,32,善人,C.bmp,Good,Yes,n,n,1,682
1143,20,right,female,,33,常人,C.bmp,Good,No,m,m,1,862
1143,20,right,female,,34,恶人,C.bmp,Good,No,m,m,1,737
1143,20,right,female,,35,善人,S.bmp,Normal,No,m,,0,0
1143,20,right,female,,36,恶人,T.bmp,Bad,Yes,n,n,1,678
1143,20,right,female,1,1,常人,S.bmp,Normal,Yes,n,m,0,729
1143,20,right,female,1,2,恶人,T.bmp,Bad,Yes,n,n,1,718
1143,20,right,female,1,3,恶人,T.bmp,Bad,Yes,n,m,0,708
1143,20,right,female,1,4,常人,S.bmp,Normal,Yes,n,n,1,621
1143,20,right,female,1,5,善人,S.bmp,Normal,No,m,n,0,430
1143,20,right,female,1,6,恶人,S.bmp,Normal,No,m,m,1,878
1143,20,right,female,1,7,恶人,C.bmp,Good,No,m,n,0,372
1143,20,right,female,1,8,善人,T.bmp,Bad,No,m,m,1,819
1143,20,right,female,1,9,善人,C.bmp,Good,Yes,n,n,1,514
1143,20,right,female,1,10,善人,C.bmp,Good,Yes,n,n,1,617
1143,20,right,female,1,11,常人,C.bmp,Good,No,m,m,1,797
1143,20,right,female,1,12,常人,T.bmp,Bad,No,m,m,1,749
1143,20,right,female,1,13,恶人,T.bmp,Bad,Yes,n,n,1,749
1143,20,right,female,1,14,恶人,T.bmp,Bad,Yes,n,n,1,816
1143,20,right,female,1,15,善人,C.bmp,Good,Yes,n,n,1,548
1143,20,right,female,1,16,恶人,S.bmp,Normal,No,m,n,0,766
1143,20,right,female,1,17,恶人,C.bmp,Good,No,m,m,1,908
1143,20,right,female,1,18,善人,C.bmp,Good,Yes,n,n,1,440
1143,20,right,female,1,19,常人,C.bmp,Good,No,m,n,0,505
1143,20,right,female,1,20,善人,T.bmp,Bad,No,m,m,1,800
1143,20,right,female,1,21,善人,S.bmp,Normal,No,m,m,1,751
1143,20,right,female,1,22,常人,S.bmp,Normal,Yes,n,n,1,588
1143,20,right,female,1,23,常人,T.bmp,Bad,No,m,m,1,616
1143,20,right,female,1,24,常人,S.bmp,Normal,Yes,n,m,0,719
1143,20,right,female,1,25,常人,S.bmp,Normal,Yes,n,m,0,633
1143,20,right,female,1,26,恶人,T.bmp,Bad,Yes,n,m,0,632
1143,20,right,female,1,27,善人,S.bmp,Normal,No,m,n,0,662
1143,20,right,female,1,28,常人,T.bmp,Bad,No,m,n,0,540
1143,20,right,female,1,29,常人,S.bmp,Normal,Yes,n,n,1,450
1143,20,right,female,1,30,善人,T.bmp,Bad,No,m,,0,0
1143,20,right,female,1,31,恶人,C.bmp,Good,No,m,m,1,810
1143,20,right,female,1,32,善人,C.bmp,Good,Yes,n,n,1,418
1143,20,right,female,1,33,常人,C.bmp,Good,No,m,m,1,752
1143,20,right,female,1,34,恶人,T.bmp,Bad,Yes,n,n,1,703
1143,20,right,female,1,35,善人,C.bmp,Good,Yes,n,m,0,655
1143,20,right,female,1,36,恶人,S.bmp,Normal,No,m,n,0,720
1143,20,right,female,1,37,恶人,S.bmp,Normal,No,m,m,1,786
1143,20,right,female,1,38,常人,S.bmp,Normal,Yes,n,n,1,737
1143,20,right,female,1,39,常人,T.bmp,Bad,No,m,m,1,651
1143,20,right,female,1,40,善人,S.bmp,Normal,No,m,m,1,983
1143,20,right,female,1,41,善人,T.bmp,Bad,No,m,m,1,706
1143,20,right,female,1,42,恶人,T.bmp,Bad,Yes,n,n,1,735
1143,20,right,female,1,43,善人,C.bmp,Good,Yes,n,n,1,418
1143,20,right,female,1,44,恶人,C.bmp,Good,No,m,m,1,636
1143,20,right,female,1,45,常人,C.bmp,Good,No,m,n,0,473
1143,20,right,female,1,46,恶人,T.bmp,Bad,Yes,n,n,1,501
1143,20,right,female,1,47,善人,C.bmp,Good,Yes,n,n,1,529
1143,20,right,female,1,48,常人,S.bmp,Normal,Yes,n,m,0,594
1143,20,right,female,1,49,常人,S.bmp,Normal,Yes,n,n,1,470
1143,20,right,female,1,50,恶人,S.bmp,Normal,No,m,m,1,688
1143,20,right,female,1,51,善人,T.bmp,Bad,No,m,m,1,715
1143,20,right,female,1,52,常人,T.bmp,Bad,No,m,m,1,819
1143,20,right,female,1,53,常人,S.bmp,Normal,Yes,n,n,1,542
1143,20,right,female,1,54,恶人,C.bmp,Good,No,m,m,1,722
1143,20,right,female,1,55,善人,C.bmp,Good,Yes,n,n,1,406
1143,20,right,female,1,56,常人,C.bmp,Good,No,m,n,0,625
1143,20,right,female,1,57,善人,C.bmp,Good,Yes,n,n,1,462
1143,20,right,female,1,58,恶人,T.bmp,Bad,Yes,n,n,1,527
1143,20,right,female,1,59,善人,S.bmp,Normal,No,m,n,0,745
1143,20,right,female,1,60,恶人,T.bmp,Bad,Yes,n,n,1,431
1143,20,right,female,2,1,常人,T.bmp,Bad,No,m,n,0,673
1143,20,right,female,2,2,善人,C.bmp,Good,Yes,n,n,1,625
1143,20,right,female,2,3,善人,S.bmp,Normal,No,m,m,1,767
1143,20,right,female,2,4,常人,S.bmp,Normal,Yes,n,n,1,614
1143,20,right,female,2,5,恶人,T.bmp,Bad,Yes,n,n,1,565
1143,20,right,female,2,6,常人,S.bmp,Normal,Yes,n,n,1,593
1143,20,right,female,2,7,恶人,C.bmp,Good,No,m,m,1,583
1143,20,right,female,2,8,善人,T.bmp,Bad,No,m,m,1,724
1143,20,right,female,2,9,善人,C.bmp,Good,Yes,n,n,1,561
1143,20,right,female,2,10,常人,C.bmp,Good,No,m,n,0,627
1143,20,right,female,2,11,恶人,S.bmp,Normal,No,m,m,1,997
1143,20,right,female,2,12,恶人,T.bmp,Bad,Yes,n,n,1,567
1143,20,right,female,2,13,常人,C.bmp,Good,No,m,n,0,377
1143,20,right,female,2,14,常人,T.bmp,Bad,No,m,n,0,404
1143,20,right,female,2,15,常人,S.bmp,Normal,Yes,n,n,1,470
1143,20,right,female,2,16,恶人,T.bmp,Bad,Yes,n,n,1,574
1143,20,right,female,2,17,恶人,C.bmp,Good,No,m,m,1,487
1143,20,right,female,2,18,常人,S.bmp,Normal,Yes,n,n,1,477
1143,20,right,female,2,19,善人,C.bmp,Good,Yes,n,m,0,619
1143,20,right,female,2,20,善人,C.bmp,Good,Yes,n,n,1,532
1143,20,right,female,2,21,善人,S.bmp,Normal,No,m,m,1,637
1143,20,right,female,2,22,恶人,S.bmp,Normal,No,m,n,0,702
1143,20,right,female,2,23,恶人,T.bmp,Bad,Yes,n,n,1,578
1143,20,right,female,2,24,善人,T.bmp,Bad,No,m,m,1,758
1143,20,right,female,2,25,常人,S.bmp,Normal,Yes,n,n,1,758
1143,20,right,female,2,26,善人,C.bmp,Good,Yes,n,n,1,480
1143,20,right,female,2,27,善人,T.bmp,Bad,No,m,n,0,470
1143,20,right,female,2,28,常人,T.bmp,Bad,No,m,m,1,1032
1143,20,right,female,2,29,恶人,C.bmp,Good,No,m,m,1,716
1143,20,right,female,2,30,常人,C.bmp,Good,No,m,n,0,667
1143,20,right,female,2,31,善人,C.bmp,Good,Yes,n,n,1,924
1143,20,right,female,2,32,善人,S.bmp,Normal,No,m,m,1,532
1143,20,right,female,2,33,恶人,T.bmp,Bad,Yes,n,m,0,788
1143,20,right,female,2,34,恶人,T.bmp,Bad,Yes,n,n,1,625
1143,20,right,female,2,35,恶人,S.bmp,Normal,No,m,m,1,691
1143,20,right,female,2,36,常人,S.bmp,Normal,Yes,n,n,1,607
1143,20,right,female,2,37,常人,C.bmp,Good,No,m,m,1,670
1143,20,right,female,2,38,常人,S.bmp,Normal,Yes,n,n,1,774
1143,20,right,female,2,39,恶人,T.bmp,Bad,Yes,n,n,1,611
1143,20,right,female,2,40,恶人,T.bmp,Bad,Yes,n,n,1,600
1143,20,right,female,2,41,恶人,S.bmp,Normal,No,m,m,1,781
1143,20,right,female,2,42,善人,C.bmp,Good,Yes,n,n,1,541
1143,20,right,female,2,43,恶人,C.bmp,Good,No,m,m,1,645
1143,20,right,female,2,44,常人,T.bmp,Bad,No,m,m,1,836
1143,20,right,female,2,45,常人,S.bmp,Normal,Yes,n,n,1,635
1143,20,right,female,2,46,善人,S.bmp,Normal,No,m,m,1,739
1143,20,right,female,2,47,善人,C.bmp,Good,Yes,n,n,1,615
1143,20,right,female,2,48,善人,T.bmp,Bad,No,m,m,1,528
1143,20,right,female,2,49,常人,C.bmp,Good,No,m,m,1,937
1143,20,right,female,2,50,恶人,T.bmp,Bad,Yes,n,n,1,659
1143,20,right,female,2,51,常人,S.bmp,Normal,Yes,n,n,1,916
1143,20,right,female,2,52,善人,S.bmp,Normal,No,m,m,1,600
1143,20,right,female,2,53,善人,T.bmp,Bad,No,m,m,1,628
1143,20,right,female,2,54,恶人,C.bmp,Good,No,m,m,1,656
1143,20,right,female,2,55,常人,S.bmp,Normal,Yes,n,n,1,645
1143,20,right,female,2,56,善人,C.bmp,Good,Yes,n,m,0,787
1143,20,right,female,2,57,善人,C.bmp,Good,Yes,n,n,1,586
1143,20,right,female,2,58,常人,T.bmp,Bad,No,m,m,1,690
1143,20,right,female,2,59,恶人,S.bmp,Normal,No,m,n,0,908
1143,20,right,female,2,60,恶人,T.bmp,Bad,Yes,n,n,1,747
1143,20,right,female,3,1,恶人,T.bmp,Bad,Yes,n,n,1,691
1143,20,right,female,3,2,善人,S.bmp,Normal,No,m,m,1,910
1143,20,right,female,3,3,善人,C.bmp,Good,Yes,n,n,1,605
1143,20,right,female,3,4,常人,S.bmp,Normal,Yes,n,n,1,937
1143,20,right,female,3,5,善人,C.bmp,Good,Yes,n,n,1,622
1143,20,right,female,3,6,恶人,T.bmp,Bad,Yes,n,m,0,535
1143,20,right,female,3,7,常人,S.bmp,Normal,Yes,n,n,1,649
1143,20,right,female,3,8,恶人,C.bmp,Good,No,m,m,1,791
1143,20,right,female,3,9,善人,T.bmp,Bad,No,m,n,0,552
1143,20,right,female,3,10,常人,T.bmp,Bad,No,m,m,1,732
1143,20,right,female,3,11,常人,C.bmp,Good,No,m,m,1,1065
1143,20,right,female,3,12,恶人,S.bmp,Normal,No,m,m,1,978
1143,20,right,female,3,13,恶人,C.bmp,Good,No,m,m,1,854
1143,20,right,female,3,14,恶人,T.bmp,Bad,Yes,n,n,1,691
1143,20,right,female,3,15,常人,T.bmp,Bad,No,m,m,1,757
1143,20,right,female,3,16,善人,C.bmp,Good,Yes,n,n,1,594
1143,20,right,female,3,17,恶人,S.bmp,Normal,No,m,m,1,775
1143,20,right,female,3,18,常人,S.bmp,Normal,Yes,n,n,1,584
1143,20,right,female,3,19,常人,C.bmp,Good,No,m,n,0,584
1143,20,right,female,3,20,善人,T.bmp,Bad,No,m,n,0,459
1143,20,right,female,3,21,恶人,T.bmp,Bad,Yes,n,n,1,678
1143,20,right,female,3,22,常人,S.bmp,Normal,Yes,n,n,1,898
1143,20,right,female,3,23,善人,C.bmp,Good,Yes,n,n,1,733
1143,20,right,female,3,24,善人,S.bmp,Normal,No,m,m,1,761
1143,20,right,female,3,25,恶人,S.bmp,Normal,No,m,m,1,903
1143,20,right,female,3,26,善人,C.bmp,Good,Yes,n,n,1,702
1143,20,right,female,3,27,常人,S.bmp,Normal,Yes,n,n,1,691
1143,20,right,female,3,28,善人,C.bmp,Good,Yes,n,n,1,681
1143,20,right,female,3,29,善人,T.bmp,Bad,No,m,m,1,632
1143,20,right,female,3,30,常人,T.bmp,Bad,No,m,m,1,736
1143,20,right,female,3,31,恶人,T.bmp,Bad,Yes,n,n,1,649
1143,20,right,female,3,32,善人,S.bmp,Normal,No,m,m,1,639
1143,20,right,female,3,33,常人,C.bmp,Good,No,m,m,1,628
1143,20,right,female,3,34,常人,S.bmp,Normal,Yes,n,n,1,860
1143,20,right,female,3,35,恶人,T.bmp,Bad,Yes,n,n,1,591
1143,20,right,female,3,36,恶人,C.bmp,Good,No,m,m,1,580
1143,20,right,female,3,37,善人,S.bmp,Normal,No,m,m,1,722
1143,20,right,female,3,38,常人,S.bmp,Normal,Yes,n,n,1,1093
1143,20,right,female,3,39,恶人,T.bmp,Bad,Yes,n,n,1,625
1143,20,right,female,3,40,善人,C.bmp,Good,Yes,n,n,1,577
1143,20,right,female,3,41,常人,S.bmp,Normal,Yes,n,n,1,539
1143,20,right,female,3,42,恶人,T.bmp,Bad,Yes,n,n,1,615
1143,20,right,female,3,43,常人,C.bmp,Good,No,m,n,0,643
1143,20,right,female,3,44,善人,T.bmp,Bad,No,m,n,0,606
1143,20,right,female,3,45,善人,C.bmp,Good,Yes,n,n,1,519
1143,20,right,female,3,46,恶人,S.bmp,Normal,No,m,m,1,661
1143,20,right,female,3,47,恶人,C.bmp,Good,No,m,m,1,842
1143,20,right,female,3,48,常人,T.bmp,Bad,No,m,m,1,755
1143,20,right,female,3,49,善人,C.bmp,Good,Yes,n,n,1,859
1143,20,right,female,3,50,善人,C.bmp,Good,Yes,n,n,1,544
1143,20,right,female,3,51,恶人,T.bmp,Bad,Yes,n,n,1,800
1143,20,right,female,3,52,常人,S.bmp,Normal,Yes,n,n,1,561
1143,20,right,female,3,53,常人,T.bmp,Bad,No,m,m,1,627
1143,20,right,female,3,54,恶人,C.bmp,Good,No,m,m,1,654
1143,20,right,female,3,55,善人,S.bmp,Normal,No,m,m,1,758
1143,20,right,female,3,56,常人,S.bmp,Normal,Yes,n,n,1,710
1143,20,right,female,3,57,常人,C.bmp,Good,No,m,m,1,738
1143,20,right,female,3,58,善人,T.bmp,Bad,No,m,m,1,727
1143,20,right,female,3,59,恶人,S.bmp,Normal,No,m,m,1,793
1143,20,right,female,3,60,恶人,T.bmp,Bad,Yes,n,n,1,668
1143,20,right,female,4,1,常人,C.bmp,Good,No,m,m,1,1033
1143,20,right,female,4,2,善人,S.bmp,Normal,No,m,m,1,717
1143,20,right,female,4,3,恶人,T.bmp,Bad,Yes,n,n,1,554
1143,20,right,female,4,4,善人,T.bmp,Bad,No,m,m,1,544
1143,20,right,female,4,5,恶人,S.bmp,Normal,No,m,m,1,707
1143,20,right,female,4,6,常人,T.bmp,Bad,No,m,m,1,621
1143,20,right,female,4,7,善人,C.bmp,Good,Yes,n,n,1,534
1143,20,right,female,4,8,常人,S.bmp,Normal,Yes,n,n,1,752
1143,20,right,female,4,9,恶人,C.bmp,Good,No,m,m,1,780
1143,20,right,female,4,10,常人,S.bmp,Normal,Yes,n,n,1,617
1143,20,right,female,4,11,恶人,T.bmp,Bad,Yes,n,n,1,645
1143,20,right,female,4,12,善人,C.bmp,Good,Yes,n,n,1,635
1143,20,right,female,4,13,善人,C.bmp,Good,Yes,n,n,1,548
1143,20,right,female,4,14,常人,S.bmp,Normal,Yes,n,m,0,577
1143,20,right,female,4,15,恶人,C.bmp,Good,No,m,m,1,681
1143,20,right,female,4,16,恶人,T.bmp,Bad,Yes,n,n,1,861
1143,20,right,female,4,17,善人,C.bmp,Good,Yes,n,n,1,584
1143,20,right,female,4,18,善人,T.bmp,Bad,No,m,m,1,650
1143,20,right,female,4,19,常人,S.bmp,Normal,Yes,n,n,1,715
1143,20,right,female,4,20,恶人,S.bmp,Normal,No,m,m,1,1010
1143,20,right,female,4,21,善人,S.bmp,Normal,No,m,m,1,809
1143,20,right,female,4,22,常人,C.bmp,Good,No,m,m,1,761
1143,20,right,female,4,23,常人,T.bmp,Bad,No,m,m,1,826
1143,20,right,female,4,24,恶人,T.bmp,Bad,Yes,n,n,1,598
1143,20,right,female,4,25,恶人,S.bmp,Normal,No,m,m,1,664
1143,20,right,female,4,26,善人,S.bmp,Normal,No,m,n,0,844
1143,20,right,female,4,27,常人,C.bmp,Good,No,m,n,0,567
1143,20,right,female,4,28,善人,T.bmp,Bad,No,m,n,0,594
1143,20,right,female,4,29,善人,C.bmp,Good,Yes,n,n,1,737
1143,20,right,female,4,30,常人,T.bmp,Bad,No,m,m,1,737
1143,20,right,female,4,31,恶人,T.bmp,Bad,Yes,n,n,1,726
1143,20,right,female,4,32,恶人,T.bmp,Bad,Yes,n,n,1,640
1143,20,right,female,4,33,常人,S.bmp,Normal,Yes,n,n,1,782
1143,20,right,female,4,34,常人,S.bmp,Normal,Yes,n,n,1,619
1143,20,right,female,4,35,善人,C.bmp,Good,Yes,n,n,1,734
1143,20,right,female,4,36,恶人,C.bmp,Good,No,m,m,1,685
1143,20,right,female,4,37,恶人,T.bmp,Bad,Yes,n,n,1,751
1143,20,right,female,4,38,善人,C.bmp,Good,Yes,n,n,1,855
1143,20,right,female,4,39,恶人,T.bmp,Bad,Yes,n,n,1,550
1143,20,right,female,4,40,善人,C.bmp,Good,Yes,n,n,1,665
1143,20,right,female,4,41,常人,S.bmp,Normal,Yes,n,n,1,655
1143,20,right,female,4,42,恶人,S.bmp,Normal,No,m,m,1,569
1143,20,right,female,4,43,常人,T.bmp,Bad,No,m,m,1,940
1143,20,right,female,4,44,善人,S.bmp,Normal,No,m,m,1,739
1143,20,right,female,4,45,常人,C.bmp,Good,No,m,m,1,766
1143,20,right,female,4,46,善人,T.bmp,Bad,No,m,m,1,1061
1143,20,right,female,4,47,恶人,C.bmp,Good,No,m,m,1,746
1143,20,right,female,4,48,常人,S.bmp,Normal,Yes,n,n,1,888
1143,20,right,female,4,49,恶人,C.bmp,Good,No,m,m,1,725
1143,20,right,female,4,50,常人,C.bmp,Good,No,m,,0,0
1143,20,right,female,4,51,善人,C.bmp,Good,Yes,n,,0,0
1143,20,right,female,4,52,常人,T.bmp,Bad,No,m,n,0,541
1143,20,right,female,4,53,常人,S.bmp,Normal,Yes,n,n,1,379
1143,20,right,female,4,54,恶人,T.bmp,Bad,Yes,n,n,1,559
1143,20,right,female,4,55,恶人,S.bmp,Normal,No,m,n,0,549
1143,20,right,female,4,56,善人,T.bmp,Bad,No,m,n,0,538
1143,20,right,female,4,57,善人,C.bmp,Good,Yes,n,m,0,414
1143,20,right,female,4,58,善人,S.bmp,Normal,No,m,m,1,604
1143,20,right,female,4,59,常人,S.bmp,Normal,Yes,n,n,1,730
1143,20,right,female,4,60,恶人,T.bmp,Bad,Yes,n,n,1,644
1143,20,right,female,5,1,善人,C.bmp,Good,Yes,n,n,1,571
1143,20,right,female,5,2,常人,S.bmp,Normal,Yes,n,n,1,600
1143,20,right,female,5,3,常人,S.bmp,Normal,Yes,n,n,1,666
1143,20,right,female,5,4,恶人,C.bmp,Good,No,m,m,1,503
1143,20,right,female,5,5,恶人,T.bmp,Bad,Yes,n,n,1,531
1143,20,right,female,5,6,善人,T.bmp,Bad,No,m,m,1,635
1143,20,right,female,5,7,恶人,T.bmp,Bad,Yes,n,n,1,549
1143,20,right,female,5,8,常人,T.bmp,Bad,No,m,m,1,614
1143,20,right,female,5,9,善人,C.bmp,Good,Yes,n,n,1,642
1143,20,right,female,5,10,善人,S.bmp,Normal,No,m,m,1,670
1143,20,right,female,5,11,恶人,S.bmp,Normal,No,m,m,1,850
1143,20,right,female,5,12,常人,C.bmp,Good,No,m,m,1,993
1143,20,right,female,5,13,善人,T.bmp,Bad,No,m,m,1,753
1143,20,right,female,5,14,恶人,T.bmp,Bad,Yes,n,n,1,552
1143,20,right,female,5,15,善人,C.bmp,Good,Yes,n,n,1,657
1143,20,right,female,5,16,恶人,S.bmp,Normal,No,m,m,1,799
1143,20,right,female,5,17,常人,S.bmp,Normal,Yes,n,n,1,788
1143,20,right,female,5,18,常人,C.bmp,Good,No,m,m,1,664
1143,20,right,female,5,19,常人,S.bmp,Normal,Yes,n,n,1,844
1143,20,right,female,5,20,善人,C.bmp,Good,Yes,n,n,1,567
1143,20,right,female,5,21,恶人,T.bmp,Bad,Yes,n,n,1,491
1143,20,right,female,5,22,善人,S.bmp,Normal,No,m,m,1,595
1143,20,right,female,5,23,恶人,C.bmp,Good,No,m,n,0,508
1143,20,right,female,5,24,常人,T.bmp,Bad,No,m,m,1,689
1143,20,right,female,5,25,善人,S.bmp,Normal,No,m,m,1,564
1143,20,right,female,5,26,常人,C.bmp,Good,No,m,n,0,554
1143,20,right,female,5,27,常人,T.bmp,Bad,No,m,m,1,668
1143,20,right,female,5,28,善人,C.bmp,Good,Yes,n,n,1,849
1143,20,right,female,5,29,善人,T.bmp,Bad,No,m,m,1,773
1143,20,right,female,5,30,恶人,C.bmp,Good,No,m,m,1,649
1143,20,right,female,5,31,善人,C.bmp,Good,Yes,n,n,1,600
1143,20,right,female,5,32,恶人,T.bmp,Bad,Yes,n,m,0,552
1143,20,right,female,5,33,常人,S.bmp,Normal,Yes,n,n,1,809
1143,20,right,female,5,34,恶人,T.bmp,Bad,Yes,n,n,1,608
1143,20,right,female,5,35,常人,S.bmp,Normal,Yes,n,n,1,750
1143,20,right,female,5,36,恶人,S.bmp,Normal,No,m,m,1,587
1143,20,right,female,5,37,常人,S.bmp,Normal,Yes,n,n,1,729
1143,20,right,female,5,38,常人,C.bmp,Good,No,m,m,1,643
1143,20,right,female,5,39,常人,T.bmp,Bad,No,m,m,1,671
1143,20,right,female,5,40,恶人,S.bmp,Normal,No,m,m,1,775
1143,20,right,female,5,41,常人,S.bmp,Normal,Yes,n,n,1,622
1143,20,right,female,5,42,善人,C.bmp,Good,Yes,n,n,1,688
1143,20,right,female,5,43,恶人,T.bmp,Bad,Yes,n,n,1,602
1143,20,right,female,5,44,善人,T.bmp,Bad,No,m,m,1,782
1143,20,right,female,5,45,善人,C.bmp,Good,Yes,n,n,1,505
1143,20,right,female,5,46,恶人,C.bmp,Good,No,m,m,1,609
1143,20,right,female,5,47,恶人,T.bmp,Bad,Yes,n,n,1,713
1143,20,right,female,5,48,善人,S.bmp,Normal,No,m,m,1,626
1143,20,right,female,5,49,恶人,T.bmp,Bad,Yes,n,n,1,578
1143,20,right,female,5,50,恶人,S.bmp,Normal,No,m,m,1,568
1143,20,right,female,5,51,常人,S.bmp,Normal,Yes,n,n,1,558
1143,20,right,female,5,52,常人,S.bmp,Normal,Yes,n,n,1,662
1143,20,right,female,5,53,恶人,T.bmp,Bad,Yes,n,n,1,613
1143,20,right,female,5,54,善人,S.bmp,Normal,No,m,m,1,565
1143,20,right,female,5,55,常人,T.bmp,Bad,No,m,m,1,669
1143,20,right,female,5,56,善人,T.bmp,Bad,No,m,m,1,774
1143,20,right,female,5,57,善人,C.bmp,Good,Yes,n,n,1,584
1143,20,right,female,5,58,常人,C.bmp,Good,No,m,m,1,650
1143,20,right,female,5,59,恶人,C.bmp,Good,No,m,n,0,541
1143,20,right,female,5,60,善人,C.bmp,Good,Yes,n,n,1,683
1143,20,right,female,6,1,恶人,C.bmp,Good,No,m,m,1,706
1143,20,right,female,6,2,常人,C.bmp,Good,No,m,m,1,810
1143,20,right,female,6,3,常人,S.bmp,Normal,Yes,n,n,1,838
1143,20,right,female,6,4,善人,T.bmp,Bad,No,m,m,1,751
1143,20,right,female,6,5,恶人,T.bmp,Bad,Yes,n,n,1,703
1143,20,right,female,6,6,恶人,T.bmp,Bad,Yes,n,n,1,654
1143,20,right,female,6,7,常人,S.bmp,Normal,Yes,n,n,1,606
1143,20,right,female,6,8,常人,T.bmp,Bad,No,m,m,1,635
1143,20,right,female,6,9,善人,C.bmp,Good,Yes,n,n,1,586
1143,20,right,female,6,10,善人,C.bmp,Good,Yes,n,n,1,576
1143,20,right,female,6,11,恶人,S.bmp,Normal,No,m,m,1,718
1143,20,right,female,6,12,善人,S.bmp,Normal,No,m,m,1,757
1143,20,right,female,6,13,善人,C.bmp,Good,Yes,n,n,1,642
1143,20,right,female,6,14,善人,T.bmp,Bad,No,m,m,1,670
1143,20,right,female,6,15,恶人,T.bmp,Bad,Yes,n,n,1,622
1143,20,right,female,6,16,常人,C.bmp,Good,No,m,m,1,688
1143,20,right,female,6,17,常人,S.bmp,Normal,Yes,n,m,0,830
1143,20,right,female,6,18,恶人,C.bmp,Good,No,m,m,1,629
1143,20,right,female,6,19,常人,S.bmp,Normal,Yes,n,n,1,657
1143,20,right,female,6,20,恶人,T.bmp,Bad,Yes,n,n,1,571
1143,20,right,female,6,21,善人,C.bmp,Good,Yes,n,n,1,789
1143,20,right,female,6,22,恶人,S.bmp,Normal,No,m,m,1,703
1143,20,right,female,6,23,善人,S.bmp,Normal,No,m,m,1,807
1143,20,right,female,6,24,常人,T.bmp,Bad,No,m,m,1,758
1143,20,right,female,6,25,善人,C.bmp,Good,Yes,n,n,1,596
1143,20,right,female,6,26,恶人,T.bmp,Bad,Yes,n,n,1,710
1143,20,right,female,6,27,善人,S.bmp,Normal,No,m,m,1,738
1143,20,right,female,6,28,善人,T.bmp,Bad,No,m,m,1,662
1143,20,right,female,6,29,善人,C.bmp,Good,Yes,n,n,1,614
1143,20,right,female,6,30,常人,T.bmp,Bad,No,m,m,1,565
1143,20,right,female,6,31,恶人,S.bmp,Normal,No,m,m,1,642
1143,20,right,female,6,32,常人,S.bmp,Normal,Yes,n,n,1,631
1143,20,right,female,6,33,恶人,T.bmp,Bad,Yes,n,n,1,621
1143,20,right,female,6,34,常人,C.bmp,Good,No,m,m,1,802
1143,20,right,female,6,35,常人,S.bmp,Normal,Yes,n,n,1,612
1143,20,right,female,6,36,恶人,C.bmp,Good,No,m,m,1,650
1143,20,right,female,6,37,常人,C.bmp,Good,No,m,m,1,831
1143,20,right,female,6,38,恶人,S.bmp,Normal,No,m,n,0,783
1143,20,right,female,6,39,善人,S.bmp,Normal,No,m,m,1,849
1143,20,right,female,6,40,恶人,T.bmp,Bad,Yes,n,n,1,533
1143,20,right,female,6,41,恶人,T.bmp,Bad,Yes,n,n,1,648
1143,20,right,female,6,42,常人,S.bmp,Normal,Yes,n,n,1,676
1143,20,right,female,6,43,恶人,C.bmp,Good,No,m,m,1,627
1143,20,right,female,6,44,善人,C.bmp,Good,Yes,n,n,1,541
1143,20,right,female,6,45,常人,S.bmp,Normal,Yes,n,n,1,683
1143,20,right,female,6,46,善人,T.bmp,Bad,No,m,m,1,531
1143,20,right,female,6,47,常人,T.bmp,Bad,No,m,n,0,482
1143,20,right,female,6,48,善人,C.bmp,Good,Yes,n,n,1,549
1143,20,right,female,6,49,常人,S.bmp,Normal,Yes,n,m,0,576
1143,20,right,female,6,50,常人,T.bmp,Bad,No,m,m,1,604
1143,20,right,female,6,51,恶人,T.bmp,Bad,Yes,n,n,1,518
1143,20,right,female,6,52,恶人,S.bmp,Normal,No,m,m,1,698
1143,20,right,female,6,53,恶人,C.bmp,Good,No,m,m,1,612
1143,20,right,female,6,54,常人,S.bmp,Normal,Yes,n,n,1,525
1143,20,right,female,6,55,常人,C.bmp,Good,No,m,m,1,858
1143,20,right,female,6,56,善人,C.bmp,Good,Yes,n,n,1,581
1143,20,right,female,6,57,善人,T.bmp,Bad,No,m,m,1,571
1143,20,right,female,6,58,恶人,T.bmp,Bad,Yes,n,n,1,599
1143,20,right,female,6,59,善人,S.bmp,Normal,No,m,m,1,894
1143,20,right,female,6,60,善人,C.bmp,Good,Yes,n,n,1,693
1144,20,right,female,,1,善人,S.bmp,Normal,No,n,,0,0
1144,20,right,female,,2,常人,C.bmp,Bad,No,n,m,0,852
1144,20,right,female,,3,恶人,C.bmp,Bad,Yes,m,n,0,514
1144,20,right,female,,4,恶人,C.bmp,Bad,Yes,m,m,1,540
1144,20,right,female,,5,恶人,T.bmp,Good,No,n,m,0,531
1144,20,right,female,,6,常人,T.bmp,Good,No,n,n,1,1095
1144,20,right,female,,7,常人,S.bmp,Normal,Yes,m,m,1,818
1144,20,right,female,,8,常人,S.bmp,Normal,Yes,m,m,1,771
1144,20,right,female,,9,善人,T.bmp,Good,Yes,m,n,0,1030
1144,20,right,female,,10,善人,C.bmp,Bad,No,n,m,0,576
1144,20,right,female,,11,善人,T.bmp,Good,Yes,m,n,0,718
1144,20,right,female,,12,恶人,S.bmp,Normal,No,n,m,0,594
1144,20,right,female,,13,恶人,S.bmp,Normal,No,n,m,0,480
1144,20,right,female,,14,常人,T.bmp,Good,No,n,m,0,700
1144,20,right,female,,15,善人,T.bmp,Good,Yes,m,,0,0
1144,20,right,female,,16,恶人,C.bmp,Bad,Yes,m,n,0,683
1144,20,right,female,,17,常人,C.bmp,Bad,No,n,m,0,445
1144,20,right,female,,18,善人,S.bmp,Normal,No,n,m,0,474
1144,20,right,female,,19,恶人,T.bmp,Good,No,n,m,0,427
1144,20,right,female,,20,常人,S.bmp,Normal,Yes,m,m,1,418
1144,20,right,female,,21,恶人,C.bmp,Bad,Yes,m,n,0,638
1144,20,right,female,,22,善人,C.bmp,Bad,No,n,m,0,480
1144,20,right,female,,23,善人,T.bmp,Good,Yes,m,m,1,964
1144,20,right,female,,24,常人,S.bmp,Normal,Yes,m,m,1,573
1144,20,right,female,,25,常人,S.bmp,Normal,Yes,m,m,1,494
1144,20,right,female,,26,常人,T.bmp,Good,No,n,n,1,828
1144,20,right,female,,27,善人,T.bmp,Good,Yes,m,m,1,705
1144,20,right,female,,28,善人,T.bmp,Good,Yes,m,m,1,543
1144,20,right,female,,29,恶人,C.bmp,Bad,Yes,m,n,0,686
1144,20,right,female,,30,常人,C.bmp,Bad,No,n,m,0,459
1144,20,right,female,,31,恶人,S.bmp,Normal,No,n,m,0,373
1144,20,right,female,,32,恶人,C.bmp,Bad,Yes,m,m,1,440
1144,20,right,female,,33,善人,C.bmp,Bad,No,n,n,1,670
1144,20,right,female,,34,常人,S.bmp,Normal,Yes,m,m,1,623
1144,20,right,female,,35,善人,S.bmp,Normal,No,n,n,1,843
1144,20,right,female,,36,恶人,T.bmp,Good,No,n,m,0,834
1144,20,right,female,1,1,常人,T.bmp,Good,No,n,m,0,705
1144,20,right,female,1,2,常人,S.bmp,Normal,Yes,m,m,1,620
1144,20,right,female,1,3,恶人,S.bmp,Normal,No,n,n,1,725
1144,20,right,female,1,4,常人,C.bmp,Bad,No,n,n,1,869
1144,20,right,female,1,5,善人,C.bmp,Bad,No,n,n,1,669
1144,20,right,female,1,6,恶人,C.bmp,Bad,Yes,m,m,1,661
1144,20,right,female,1,7,恶人,C.bmp,Bad,Yes,m,n,0,652
1144,20,right,female,1,8,善人,T.bmp,Good,Yes,m,n,0,757
1144,20,right,female,1,9,善人,S.bmp,Normal,No,n,n,1,863
1144,20,right,female,1,10,恶人,T.bmp,Good,No,n,m,0,627
1144,20,right,female,1,11,常人,S.bmp,Normal,Yes,m,m,1,731
1144,20,right,female,1,12,善人,T.bmp,Good,Yes,m,n,0,607
1144,20,right,female,1,13,善人,T.bmp,Good,Yes,m,m,1,675
1144,20,right,female,1,14,常人,S.bmp,Normal,Yes,m,m,1,553
1144,20,right,female,1,15,常人,T.bmp,Good,No,n,m,0,373
1144,20,right,female,1,16,善人,T.bmp,Good,Yes,m,m,1,451
1144,20,right,female,1,17,常人,S.bmp,Normal,Yes,m,m,1,556
1144,20,right,female,1,18,善人,C.bmp,Bad,No,n,m,0,738
1144,20,right,female,1,19,常人,C.bmp,Bad,No,n,m,0,500
1144,20,right,female,1,20,恶人,S.bmp,Normal,No,n,m,0,606
1144,20,right,female,1,21,恶人,C.bmp,Bad,Yes,m,m,1,562
1144,20,right,female,1,22,恶人,C.bmp,Bad,Yes,m,m,1,818
1144,20,right,female,1,23,善人,S.bmp,Normal,No,n,n,1,809
1144,20,right,female,1,24,恶人,T.bmp,Good,No,n,m,0,762
1144,20,right,female,1,25,善人,T.bmp,Good,Yes,m,n,0,524
1144,20,right,female,1,26,善人,S.bmp,Normal,No,n,m,0,668
1144,20,right,female,1,27,恶人,S.bmp,Normal,No,n,n,1,356
1144,20,right,female,1,28,常人,S.bmp,Normal,Yes,m,m,1,535
1144,20,right,female,1,29,常人,T.bmp,Good,No,n,n,1,870
1144,20,right,female,1,30,常人,S.bmp,Normal,Yes,m,m,1,670
1144,20,right,female,1,31,恶人,C.bmp,Bad,Yes,m,n,0,928
1144,20,right,female,1,32,恶人,T.bmp,Good,No,n,m,0,805
1144,20,right,female,1,33,善人,C.bmp,Bad,No,n,n,1,834
1144,20,right,female,1,34,善人,T.bmp,Good,Yes,m,n,0,840
1144,20,right,female,1,35,恶人,C.bmp,Bad,Yes,m,m,1,789
1144,20,right,female,1,36,常人,C.bmp,Bad,No,n,m,0,818
1144,20,right,female,1,37,常人,T.bmp,Good,No,n,n,1,657
1144,20,right,female,1,38,恶人,C.bmp,Bad,Yes,m,n,0,648
1144,20,right,female,1,39,常人,C.bmp,Bad,No,n,m,0,563
1144,20,right,female,1,40,善人,T.bmp,Good,Yes,m,n,0,412
1144,20,right,female,1,41,恶人,S.bmp,Normal,No,n,m,0,642
1144,20,right,female,1,42,善人,S.bmp,Normal,No,n,m,0,977
1144,20,right,female,1,43,善人,T.bmp,Good,Yes,m,m,1,472
1144,20,right,female,1,44,恶人,C.bmp,Bad,Yes,m,n,0,768
1144,20,right,female,1,45,常人,S.bmp,Normal,Yes,m,m,1,416
1144,20,right,female,1,46,恶人,T.bmp,Good,No,n,m,0,712
1144,20,right,female,1,47,善人,C.bmp,Bad,No,n,n,1,360
1144,20,right,female,1,48,常人,S.bmp,Normal,Yes,m,m,1,552
1144,20,right,female,1,49,善人,T.bmp,Good,Yes,m,m,1,735
1144,20,right,female,1,50,常人,S.bmp,Normal,Yes,m,m,1,813
1144,20,right,female,1,51,常人,T.bmp,Good,No,n,n,1,1033
1144,20,right,female,1,52,善人,T.bmp,Good,Yes,m,m,1,795
1144,20,right,female,1,53,恶人,S.bmp,Normal,No,n,m,0,748
1144,20,right,female,1,54,恶人,C.bmp,Bad,Yes,m,m,1,740
1144,20,right,female,1,55,恶人,C.bmp,Bad,Yes,m,m,1,581
1144,20,right,female,1,56,常人,S.bmp,Normal,Yes,m,m,1,503
1144,20,right,female,1,57,善人,S.bmp,Normal,No,n,m,0,456
1144,20,right,female,1,58,恶人,T.bmp,Good,No,n,n,1,638
1144,20,right,female,1,59,常人,C.bmp,Bad,No,n,n,1,782
1144,20,right,female,1,60,善人,C.bmp,Bad,No,n,n,1,860
1144,20,right,female,2,1,恶人,C.bmp,Bad,Yes,m,,0,0
1144,20,right,female,2,2,善人,T.bmp,Good,Yes,m,n,0,768
1144,20,right,female,2,3,善人,T.bmp,Good,Yes,m,m,1,569
1144,20,right,female,2,4,恶人,T.bmp,Good,No,n,m,0,331
1144,20,right,female,2,5,常人,S.bmp,Normal,Yes,m,m,1,627
1144,20,right,female,2,6,善人,S.bmp,Normal,No,n,n,1,695
1144,20,right,female,2,7,恶人,S.bmp,Normal,No,n,m,0,609
1144,20,right,female,2,8,常人,T.bmp,Good,No,n,n,1,600
1144,20,right,female,2,9,恶人,C.bmp,Bad,Yes,m,n,0,708
1144,20,right,female,2,10,善人,C.bmp,Bad,No,n,n,1,928
1144,20,right,female,2,11,常人,C.bmp,Bad,No,n,n,1,805
1144,20,right,female,2,12,常人,S.bmp,Normal,Yes,m,n,0,528
1144,20,right,female,2,13,常人,T.bmp,Good,No,n,m,0,710
1144,20,right,female,2,14,恶人,C.bmp,Bad,Yes,m,m,1,742
1144,20,right,female,2,15,善人,S.bmp,Normal,No,n,m,0,654
1144,20,right,female,2,16,恶人,S.bmp,Normal,No,n,n,1,874
1144,20,right,female,2,17,常人,S.bmp,Normal,Yes,m,m,1,686
1144,20,right,female,2,18,善人,T.bmp,Good,Yes,m,m,1,992
1144,20,right,female,2,19,常人,C.bmp,Bad,No,n,n,1,1061
1144,20,right,female,2,20,恶人,C.bmp,Bad,Yes,m,n,0,785
1144,20,right,female,2,21,常人,S.bmp,Normal,Yes,m,,0,0
1144,20,right,female,2,22,善人,C.bmp,Bad,No,n,,0,0
1144,20,right,female,2,23,恶人,T.bmp,Good,No,n,n,1,872
1144,20,right,female,2,24,善人,T.bmp,Good,Yes,m,n,0,672
1144,20,right,female,2,25,常人,C.bmp,Bad,No,n,n,1,712
1144,20,right,female,2,26,善人,T.bmp,Good,Yes,m,n,0,551
1144,20,right,female,2,27,善人,T.bmp,Good,Yes,m,n,0,771
1144,20,right,female,2,28,常人,S.bmp,Normal,Yes,m,m,1,914
1144,20,right,female,2,29,恶人,C.bmp,Bad,Yes,m,m,1,840
1144,20,right,female,2,30,常人,S.bmp,Normal,Yes,m,m,1,793
1144,20,right,female,2,31,常人,T.bmp,Good,No,n,,0,0
1144,20,right,female,2,32,善人,C.bmp,Bad,No,n,m,0,813
1144,20,right,female,2,33,善人,S.bmp,Normal,No,n,n,1,346
1144,20,right,female,2,34,恶人,C.bmp,Bad,Yes,m,n,0,719
1144,20,right,female,2,35,恶人,S.bmp,Normal,No,n,n,1,481
1144,20,right,female,2,36,恶人,T.bmp,Good,No,n,n,1,511
1144,20,right,female,2,37,善人,S.bmp,Normal,No,n,n,1,769
1144,20,right,female,2,38,恶人,C.bmp,Bad,Yes,m,n,0,455
1144,20,right,female,2,39,恶人,C.bmp,Bad,Yes,m,m,1,560
1144,20,right,female,2,40,常人,S.bmp,Normal,Yes,m,m,1,590
1144,20,right,female,2,41,善人,T.bmp,Good,Yes,m,n,0,657
1144,20,right,female,2,42,常人,S.bmp,Normal,Yes,m,m,1,574
1144,20,right,female,2,43,善人,T.bmp,Good,Yes,m,m,1,525
1144,20,right,female,2,44,恶人,S.bmp,Normal,No,n,m,0,478
1144,20,right,female,2,45,常人,T.bmp,Good,No,n,n,1,469
1144,20,right,female,2,46,善人,C.bmp,Bad,No,n,n,1,500
1144,20,right,female,2,47,常人,C.bmp,Bad,No,n,n,1,834
1144,20,right,female,2,48,恶人,T.bmp,Good,No,n,n,1,673
1144,20,right,female,2,49,恶人,S.bmp,Normal,No,n,n,1,511
1144,20,right,female,2,50,善人,S.bmp,Normal,No,n,n,1,502
1144,20,right,female,2,51,恶人,T.bmp,Good,No,n,n,1,455
1144,20,right,female,2,52,常人,S.bmp,Normal,Yes,m,m,1,637
1144,20,right,female,2,53,常人,T.bmp,Good,No,n,n,1,857
1144,20,right,female,2,54,常人,C.bmp,Bad,No,n,n,1,821
1144,20,right,female,2,55,善人,T.bmp,Good,Yes,m,n,0,621
1144,20,right,female,2,56,常人,S.bmp,Normal,Yes,m,m,1,612
1144,20,right,female,2,57,恶人,C.bmp,Bad,Yes,m,m,1,642
1144,20,right,female,2,58,恶人,C.bmp,Bad,Yes,m,m,1,557
1144,20,right,female,2,59,善人,C.bmp,Bad,No,n,n,1,815
1144,20,right,female,2,60,善人,T.bmp,Good,Yes,m,n,0,806
1144,20,right,female,3,1,常人,T.bmp,Good,No,n,n,1,915
1144,20,right,female,3,2,恶人,C.bmp,Bad,Yes,m,m,1,795
1144,20,right,female,3,3,恶人,C.bmp,Bad,Yes,m,m,1,401
1144,20,right,female,3,4,善人,S.bmp,Normal,No,n,m,0,433
1144,20,right,female,3,5,善人,T.bmp,Good,Yes,m,n,0,661
1144,20,right,female,3,6,常人,S.bmp,Normal,Yes,m,m,1,538
1144,20,right,female,3,7,常人,C.bmp,Bad,No,n,m,0,453
1144,20,right,female,3,8,恶人,T.bmp,Good,No,n,n,1,711
1144,20,right,female,3,9,善人,T.bmp,Good,Yes,m,n,0,740
1144,20,right,female,3,10,善人,C.bmp,Bad,No,n,m,0,770
1144,20,right,female,3,11,常人,S.bmp,Normal,Yes,m,m,1,685
1144,20,right,female,3,12,恶人,S.bmp,Normal,No,n,n,1,954
1144,20,right,female,3,13,恶人,C.bmp,Bad,Yes,m,m,1,907
1144,20,right,female,3,14,善人,T.bmp,Good,Yes,m,m,1,707
1144,20,right,female,3,15,常人,C.bmp,Bad,No,n,n,1,852
1144,20,right,female,3,16,恶人,C.bmp,Bad,Yes,m,n,0,845
1144,20,right,female,3,17,常人,T.bmp,Good,No,n,n,1,796
1144,20,right,female,3,18,常人,S.bmp,Normal,Yes,m,m,1,520
1144,20,right,female,3,19,善人,T.bmp,Good,Yes,m,n,0,893
1144,20,right,female,3,20,恶人,T.bmp,Good,No,n,m,0,808
1144,20,right,female,3,21,常人,S.bmp,Normal,Yes,m,n,0,608
1144,20,right,female,3,22,善人,S.bmp,Normal,No,n,m,0,600
1144,20,right,female,3,23,恶人,S.bmp,Normal,No,n,n,1,477
1144,20,right,female,3,24,善人,C.bmp,Bad,No,n,n,1,544
1144,20,right,female,3,25,善人,C.bmp,Bad,No,n,n,1,650
1144,20,right,female,3,26,恶人,C.bmp,Bad,Yes,m,n,0,679
1144,20,right,female,3,27,恶人,C.bmp,Bad,Yes,m,m,1,785
1144,20,right,female,3,28,善人,T.bmp,Good,Yes,m,n,0,814
1144,20,right,female,3,29,常人,S.bmp,Normal,Yes,m,m,1,617
1144,20,right,female,3,30,善人,S.bmp,Normal,No,n,n,1,835
1144,20,right,female,3,31,常人,S.bmp,Normal,Yes,m,m,1,979
1144,20,right,female,3,32,恶人,S.bmp,Normal,No,n,n,1,1008
1144,20,right,female,3,33,恶人,T.bmp,Good,No,n,n,1,926
1144,20,right,female,3,34,常人,C.bmp,Bad,No,n,n,1,838
1144,20,right,female,3,35,常人,T.bmp,Good,No,n,n,1,600
1144,20,right,female,3,36,善人,T.bmp,Good,Yes,m,n,0,439
1144,20,right,female,3,37,恶人,S.bmp,Normal,No,n,n,1,849
1144,20,right,female,3,38,常人,C.bmp,Bad,No,n,n,1,851
1144,20,right,female,3,39,善人,T.bmp,Good,Yes,m,n,0,880
1144,20,right,female,3,40,常人,S.bmp,Normal,Yes,m,m,1,691
1144,20,right,female,3,41,善人,C.bmp,Bad,No,n,n,1,683
1144,20,right,female,3,42,恶人,C.bmp,Bad,Yes,m,n,0,980
1144,20,right,female,3,43,恶人,T.bmp,Good,No,n,m,0,857
1144,20,right,female,3,44,恶人,C.bmp,Bad,Yes,m,n,0,1039
1144,20,right,female,3,45,常人,T.bmp,Good,No,n,m,0,916
1144,20,right,female,3,46,善人,S.bmp,Normal,No,n,n,1,1025
1144,20,right,female,3,47,善人,T.bmp,Good,Yes,m,n,0,899
1144,20,right,female,3,48,常人,S.bmp,Normal,Yes,m,m,1,661
1144,20,right,female,3,49,常人,C.bmp,Bad,No,n,n,1,690
1144,20,right,female,3,50,善人,T.bmp,Good,Yes,m,n,0,796
1144,20,right,female,3,51,恶人,C.bmp,Bad,Yes,m,n,0,863
1144,20,right,female,3,52,恶人,C.bmp,Bad,Yes,m,,0,0
1144,20,right,female,3,53,善人,C.bmp,Bad,No,n,n,1,998
1144,20,right,female,3,54,常人,S.bmp,Normal,Yes,m,m,1,608
1144,20,right,female,3,55,恶人,S.bmp,Normal,No,n,n,1,1019
1144,20,right,female,3,56,常人,T.bmp,Good,No,n,m,0,745
1144,20,right,female,3,57,善人,T.bmp,Good,Yes,m,m,1,887
1144,20,right,female,3,58,常人,S.bmp,Normal,Yes,m,m,1,736
1144,20,right,female,3,59,善人,S.bmp,Normal,No,n,n,1,918
1144,20,right,female,3,60,恶人,T.bmp,Good,No,n,n,1,604
1144,20,right,female,4,1,恶人,C.bmp,Bad,Yes,m,n,0,827
1144,20,right,female,4,2,恶人,C.bmp,Bad,Yes,m,n,0,742
1144,20,right,female,4,3,常人,S.bmp,Normal,Yes,m,m,1,657
1144,20,right,female,4,4,善人,T.bmp,Good,Yes,m,n,0,687
1144,20,right,female,4,5,恶人,S.bmp,Normal,No,n,m,0,525
1144,20,right,female,4,6,善人,T.bmp,Good,Yes,m,n,0,822
1144,20,right,female,4,7,常人,S.bmp,Normal,Yes,m,m,1,736
1144,20,right,female,4,8,善人,C.bmp,Bad,No,n,m,0,499
1144,20,right,female,4,9,常人,T.bmp,Good,No,n,n,1,910
1144,20,right,female,4,10,常人,C.bmp,Bad,No,n,m,0,1015
1144,20,right,female,4,11,恶人,T.bmp,Good,No,n,m,0,1045
1144,20,right,female,4,12,善人,S.bmp,Normal,No,n,n,1,922
1144,20,right,female,4,13,常人,S.bmp,Normal,Yes,m,m,1,647
1144,20,right,female,4,14,常人,S.bmp,Normal,Yes,m,m,1,676
1144,20,right,female,4,15,常人,T.bmp,Good,No,n,n,1,667
1144,20,right,female,4,16,善人,C.bmp,Bad,No,n,m,0,735
1144,20,right,female,4,17,常人,C.bmp,Bad,No,n,n,1,917
1144,20,right,female,4,18,恶人,C.bmp,Bad,Yes,m,m,1,1099
1144,20,right,female,4,19,恶人,S.bmp,Normal,No,n,n,1,785
1144,20,right,female,4,20,恶人,T.bmp,Good,No,n,n,1,929
1144,20,right,female,4,21,善人,T.bmp,Good,Yes,m,m,1,920
1144,20,right,female,4,22,善人,S.bmp,Normal,No,n,n,1,759
1144,20,right,female,4,23,恶人,C.bmp,Bad,Yes,m,m,1,941
1144,20,right,female,4,24,善人,T.bmp,Good,Yes,m,n,0,817
1144,20,right,female,4,25,善人,S.bmp,Normal,No,n,n,1,885
1144,20,right,female,4,26,恶人,C.bmp,Bad,Yes,m,n,0,914
1144,20,right,female,4,27,善人,C.bmp,Bad,No,n,n,1,944
1144,20,right,female,4,28,常人,C.bmp,Bad,No,n,n,1,897
1144,20,right,female,4,29,善人,T.bmp,Good,Yes,m,m,1,812
1144,20,right,female,4,30,恶人,S.bmp,Normal,No,n,n,1,928
1144,20,right,female,4,31,恶人,C.bmp,Bad,Yes,m,m,1,843
1144,20,right,female,4,32,常人,S.bmp,Normal,Yes,m,m,1,758
1144,20,right,female,4,33,恶人,T.bmp,Good,No,n,n,1,607
1144,20,right,female,4,34,常人,S.bmp,Normal,Yes,m,m,1,636
1144,20,right,female,4,35,常人,T.bmp,Good,No,n,n,1,742
1144,20,right,female,4,36,善人,T.bmp,Good,Yes,m,m,1,962
1144,20,right,female,4,37,常人,S.bmp,Normal,Yes,m,m,1,686
1144,20,right,female,4,38,常人,T.bmp,Good,No,n,n,1,754
1144,20,right,female,4,39,善人,C.bmp,Bad,No,n,m,0,642
1144,20,right,female,4,40,恶人,C.bmp,Bad,Yes,m,n,0,939
1144,20,right,female,4,41,恶人,S.bmp,Normal,No,n,m,0,970
1144,20,right,female,4,42,善人,T.bmp,Good,Yes,m,m,1,692
1144,20,right,female,4,43,善人,S.bmp,Normal,No,n,m,0,645
1144,20,right,female,4,44,恶人,C.bmp,Bad,Yes,m,m,1,1056
1144,20,right,female,4,45,常人,S.bmp,Normal,Yes,m,m,1,552
1144,20,right,female,4,46,恶人,T.bmp,Good,No,n,m,0,963
1144,20,right,female,4,47,常人,C.bmp,Bad,No,n,n,1,1068
1144,20,right,female,4,48,善人,T.bmp,Good,Yes,m,n,0,1098
1144,20,right,female,4,49,常人,S.bmp,Normal,Yes,m,m,1,631
1144,20,right,female,4,50,恶人,C.bmp,Bad,Yes,m,n,0,786
1144,20,right,female,4,51,常人,C.bmp,Bad,No,n,,0,0
1144,20,right,female,4,52,善人,C.bmp,Bad,No,n,n,1,1073
1144,20,right,female,4,53,常人,S.bmp,Normal,Yes,m,m,1,683
1144,20,right,female,4,54,常人,T.bmp,Good,No,n,m,0,521
1144,20,right,female,4,55,善人,T.bmp,Good,Yes,m,m,1,704
1144,20,right,female,4,56,恶人,S.bmp,Normal,No,n,n,1,1000
1144,20,right,female,4,57,恶人,T.bmp,Good,No,n,,0,0
1144,20,right,female,4,58,恶人,C.bmp,Bad,Yes,m,n,0,906
1144,20,right,female,4,59,善人,S.bmp,Normal,No,n,n,1,898
1144,20,right,female,4,60,善人,T.bmp,Good,Yes,m,m,1,965
