Subject,Age,Handedness,Sex,BlockList.Sample,SubTrial,Label,Target,Shape,YesNoResp,Target.CRESP,Target.RESP,Target.ACC,Target.RT
1,22,right,male,,1,恶人,S.bmp,Bad,Yes,n,,0,0
1,22,right,male,,2,善人,T.bmp,Good,Yes,n,,0,0
1,22,right,male,,3,常人,C.bmp,Normal,Yes,n,,0,0
1,22,right,male,,4,善人,T.bmp,Good,Yes,n,m,0,510
1,22,right,male,,5,恶人,T.bmp,Good,No,m,,0,0
1,22,right,male,,6,善人,C.bmp,Normal,No,m,,0,0
1,22,right,male,,7,善人,S.bmp,Bad,No,m,m,1,1032
1,22,right,male,,8,恶人,S.bmp,Bad,Yes,n,m,0,884
1,22,right,male,,9,恶人,C.bmp,Normal,No,m,,0,0
1,22,right,male,,10,常人,S.bmp,Bad,No,m,m,1,906
1,22,right,male,,11,常人,T.bmp,Good,No,m,,0,0
1,22,right,male,,12,常人,C.bmp,Normal,Yes,n,m,0,705
1,22,right,male,,13,善人,C.bmp,Normal,No,m,m,1,507
1,22,right,male,,14,常人,T.bmp,Good,No,m,,0,0
1,22,right,male,,15,常人,C.bmp,Normal,Yes,n,m,0,642
1,22,right,male,,16,善人,T.bmp,Good,Yes,n,m,0,949
1,22,right,male,,17,恶人,S.bmp,Bad,Yes,n,m,0,785
1,22,right,male,,18,恶人,S.bmp,Bad,Yes,n,m,0,924
1,22,right,male,,19,常人,C.bmp,Normal,Yes,n,m,0,1039
1,22,right,male,,20,常人,S.bmp,Bad,No,m,,0,0
1,22,right,male,,21,善人,T.bmp,Good,Yes,n,n,1,598
1,22,right,male,,22,善人,S.bmp,Bad,No,m,m,1,602
1,22,right,male,,23,恶人,C.bmp,Normal,No,m,m,1,1045
1,22,right,male,,24,恶人,T.bmp,Good,No,m,m,1,913
1,22,right,male,,25,善人,C.bmp,Normal,No,m,m,1,643
1,22,right,male,,26,恶人,C.bmp,Normal,No,m,m,1,585
1,22,right,male,,27,恶人,S.bmp,Bad,Yes,n,n,1,418
1,22,right,male,,28,常人,C.bmp,Normal,Yes,n,m,0,829
1,22,right,male,,29,常人,S.bmp,Bad,No,m,m,1,889
1,22,right,male,,30,善人,T.bmp,Good,Yes,n,n,1,916
1,22,right,male,,31,恶人,T.bmp,Good,No,m,m,1,719
1,22,right,male,,32,善人,T.bmp,Good,Yes,n,n,1,939
1,22,right,male,,33,恶人,S.bmp,Bad,Yes,n,n,1,766
1,22,right,male,,34,善人,S.bmp,Bad,No,m,m,1,818
1,22,right,male,,35,常人,C.bmp,Normal,Yes,n,m,0,701
1,22,right,male,,36,常人,T.bmp,Good,No,m,,0,0
1,22,right,male,1,1,善人,T.bmp,Good,Yes,n,n,1,776
1,22,right,male,1,2,恶人,S.bmp,Bad,Yes,n,n,1,987
1,22,right,male,1,3,常人,S.bmp,Bad,No,m,m,1,894
1,22,right,male,1,4,恶人,T.bmp,Good,No,m,m,1,802
1,22,right,male,1,5,常人,C.bmp,Normal,Yes,n,n,1,1053
1,22,right,male,1,6,善人,C.bmp,Normal,No,m,m,1,889
1,22,right,male,1,7,常人,C.bmp,Normal,Yes,n,n,1,1076
1,22,right,male,1,8,恶人,C.bmp,Normal,No,m,m,1,727
1,22,right,male,1,9,善人,T.bmp,Good,Yes,n,n,1,675
1,22,right,male,1,10,常人,T.bmp,Good,No,m,m,1,878
1,22,right,male,1,11,恶人,S.bmp,Bad,Yes,n,n,1,714
1,22,right,male,1,12,善人,S.bmp,Bad,No,m,m,1,725
1,22,right,male,1,13,恶人,S.bmp,Bad,Yes,n,n,1,905
1,22,right,male,1,14,常人,C.bmp,Normal,Yes,n,n,1,1068
1,22,right,male,1,15,善人,C.bmp,Normal,No,m,n,0,903
1,22,right,male,1,16,恶人,S.bmp,Bad,Yes,n,n,1,763
1,22,right,male,1,17,善人,T.bmp,Good,Yes,n,n,1,750
1,22,right,male,1,18,恶人,T.bmp,Good,No,m,m,1,634
1,22,right,male,1,19,常人,T.bmp,Good,No,m,m,1,909
1,22,right,male,1,20,常人,C.bmp,Normal,Yes,n,,0,0
1,22,right,male,1,21,恶人,C.bmp,Normal,No,m,m,1,691
1,22,right,male,1,22,常人,S.bmp,Bad,No,m,n,0,662
1,22,right,male,1,23,善人,T.bmp,Good,Yes,n,n,1,658
1,22,right,male,1,24,善人,S.bmp,Bad,No,m,m,1,901
1,22,right,male,1,25,善人,S.bmp,Bad,No,m,m,1,849
1,22,right,male,1,26,善人,C.bmp,Normal,No,m,,0,0
1,22,right,male,1,27,善人,T.bmp,Good,Yes,n,n,1,919
1,22,right,male,1,28,恶人,T.bmp,Good,No,m,m,1,659
1,22,right,male,1,29,恶人,S.bmp,Bad,Yes,n,m,0,958
1,22,right,male,1,30,常人,T.bmp,Good,No,m,m,1,826
1,22,right,male,1,31,常人,C.bmp,Normal,Yes,n,m,0,981
1,22,right,male,1,32,常人,S.bmp,Bad,No,m,m,1,873
1,22,right,male,1,33,常人,C.bmp,Normal,Yes,n,m,0,748
1,22,right,male,1,34,恶人,C.bmp,Normal,No,m,m,1,799
1,22,right,male,1,35,恶人,S.bmp,Bad,Yes,n,n,1,867
1,22,right,male,1,36,善人,T.bmp,Good,Yes,n,n,1,782
1,22,right,male,1,37,恶人,C.bmp,Normal,No,m,m,1,850
1,22,right,male,1,38,恶人,S.bmp,Bad,Yes,n,n,1,701
1,22,right,male,1,39,善人,C.bmp,Normal,No,m,m,1,816
1,22,right,male,1,40,善人,T.bmp,Good,Yes,n,n,1,740
1,22,right,male,1,41,常人,T.bmp,Good,No,m,m,1,831
1,22,right,male,1,42,常人,C.bmp,Normal,Yes,n,n,1,819
1,22,right,male,1,43,恶人,S.bmp,Bad,Yes,n,m,0,846
1,22,right,male,1,44,善人,S.bmp,Bad,No,m,m,1,730
1,22,right,male,1,45,常人,S.bmp,Bad,No,m,,0,0
1,22,right,male,1,46,善人,T.bmp,Good,Yes,n,n,1,800
1,22,right,male,1,47,恶人,T.bmp,Good,No,m,m,1,652
1,22,right,male,1,48,常人,C.bmp,Normal,Yes,n,n,1,783
1,22,right,male,1,49,常人,C.bmp,Normal,Yes,n,n,1,747
1,22,right,male,1,50,恶人,S.bmp,Bad,Yes,n,,0,0
1,22,right,male,1,51,恶人,S.bmp,Bad,Yes,n,n,1,882
1,22,right,male,1,52,善人,C.bmp,Normal,No,m,m,1,1005
1,22,right,male,1,53,善人,S.bmp,Bad,No,m,m,1,848
1,22,right,male,1,54,恶人,T.bmp,Good,No,m,m,1,860
1,22,right,male,1,55,常人,C.bmp,Normal,Yes,n,,0,0
1,22,right,male,1,56,善人,T.bmp,Good,Yes,n,n,1,682
1,22,right,male,1,57,常人,S.bmp,Bad,No,m,m,1,669
1,22,right,male,1,58,恶人,C.bmp,Normal,No,m,m,1,976
1,22,right,male,1,59,常人,T.bmp,Good,No,m,n,0,708
1,22,right,male,1,60,善人,T.bmp,Good,Yes,n,n,1,655
1,22,right,male,2,1,恶人,C.bmp,Normal,No,m,m,1,743
1,22,right,male,2,2,常人,S.bmp,Bad,No,m,m,1,875
1,22,right,male,2,3,常人,C.bmp,Normal,Yes,n,m,0,734
1,22,right,male,2,4,常人,C.bmp,Normal,Yes,n,n,1,682
1,22,right,male,2,5,善人,S.bmp,Bad,No,m,m,1,829
1,22,right,male,2,6,常人,T.bmp,Good,No,m,m,1,848
1,22,right,male,2,7,善人,T.bmp,Good,Yes,n,m,0,676
1,22,right,male,2,8,恶人,S.bmp,Bad,Yes,n,n,1,815
1,22,right,male,2,9,善人,C.bmp,Normal,No,m,m,1,899
1,22,right,male,2,10,恶人,S.bmp,Bad,Yes,n,n,1,910
1,22,right,male,2,11,善人,T.bmp,Good,Yes,n,m,0,674
1,22,right,male,2,12,恶人,T.bmp,Good,No,m,m,1,685
1,22,right,male,2,13,常人,T.bmp,Good,No,m,m,1,904
1,22,right,male,2,14,恶人,S.bmp,Bad,Yes,n,n,1,1004
1,22,right,male,2,15,善人,T.bmp,Good,Yes,n,,0,0
1,22,right,male,2,16,常人,C.bmp,Normal,Yes,n,n,1,891
1,22,right,male,2,17,善人,C.bmp,Normal,No,m,n,0,902
1,22,right,male,2,18,常人,C.bmp,Normal,Yes,n,m,0,937
1,22,right,male,2,19,恶人,T.bmp,Good,No,m,m,1,853
1,22,right,male,2,20,常人,S.bmp,Bad,No,m,m,1,952
1,22,right,male,2,21,善人,S.bmp,Bad,No,m,m,1,828
1,22,right,male,2,22,恶人,C.bmp,Normal,No,m,m,1,1063
1,22,right,male,2,23,恶人,S.bmp,Bad,Yes,n,n,1,859
1,22,right,male,2,24,善人,T.bmp,Good,Yes,n,n,1,797
1,22,right,male,2,25,善人,C.bmp,Normal,No,m,m,1,976
1,22,right,male,2,26,常人,S.bmp,Bad,No,m,m,1,1012
1,22,right,male,2,27,常人,C.bmp,Normal,Yes,n,,0,0
1,22,right,male,2,28,恶人,S.bmp,Bad,Yes,n,m,0,747
1,22,right,male,2,29,善人,T.bmp,Good,Yes,n,n,1,1022
1,22,right,male,2,30,恶人,C.bmp,Normal,No,m,m,1,922
1,22,right,male,2,31,善人,S.bmp,Bad,No,m,n,0,821
1,22,right,male,2,32,恶人,S.bmp,Bad,Yes,n,n,1,776
1,22,right,male,2,33,恶人,T.bmp,Good,No,m,m,1,828
1,22,right,male,2,34,常人,C.bmp,Normal,Yes,n,n,1,767
1,22,right,male,2,35,常人,T.bmp,Good,No,m,m,1,691
1,22,right,male,2,36,善人,T.bmp,Good,Yes,n,n,1,718
1,22,right,male,2,37,善人,T.bmp,Good,Yes,n,n,1,1089
1,22,right,male,2,38,常人,C.bmp,Normal,Yes,n,m,0,789
1,22,right,male,2,39,善人,S.bmp,Bad,No,m,m,1,672
1,22,right,male,2,40,善人,C.bmp,Normal,No,m,m,1,1036
1,22,right,male,2,41,恶人,S.bmp,Bad,Yes,n,n,1,735
1,22,right,male,2,42,恶人,C.bmp,Normal,No,m,m,1,715
1,22,right,male,2,43,常人,C.bmp,Normal,Yes,n,m,0,654
1,22,right,male,2,44,恶人,S.bmp,Bad,Yes,n,n,1,593
1,22,right,male,2,45,恶人,T.bmp,Good,No,m,m,1,685
1,22,right,male,2,46,常人,S.bmp,Bad,No,m,n,0,944
1,22,right,male,2,47,常人,T.bmp,Good,No,m,m,1,1020
1,22,right,male,2,48,善人,T.bmp,Good,Yes,n,m,0,751
1,22,right,male,2,49,善人,T.bmp,Good,Yes,n,n,1,794
1,22,right,male,2,50,善人,S.bmp,Bad,No,m,m,1,678
1,22,right,male,2,51,常人,C.bmp,Normal,Yes,n,n,1,873
1,22,right,male,2,52,恶人,S.bmp,Bad,Yes,n,n,1,989
1,22,right,male,2,53,善人,T.bmp,Good,Yes,n,,0,0
1,22,right,male,2,54,恶人,T.bmp,Good,No,m,n,0,628
1,22,right,male,2,55,善人,C.bmp,Normal,No,m,m,1,1055
1,22,right,male,2,56,恶人,S.bmp,Bad,Yes,n,n,1,778
1,22,right,male,2,57,常人,S.bmp,Bad,No,m,m,1,942
1,22,right,male,2,58,常人,T.bmp,Good,No,m,n,0,985
1,22,right,male,2,59,常人,C.bmp,Normal,Yes,n,m,0,676
1,22,right,male,2,60,恶人,C.bmp,Normal,No,m,m,1,799
1,22,right,male,3,1,善人,T.bmp,Good,Yes,n,n,1,804
1,22,right,male,3,2,恶人,T.bmp,Good,No,m,m,1,632
1,22,right,male,3,3,恶人,S.bmp,Bad,Yes,n,m,0,867
1,22,right,male,3,4,常人,T.bmp,Good,No,m,m,1,791
1,22,right,male,3,5,常人,C.bmp,Normal,Yes,n,n,1,746
1,22,right,male,3,6,善人,S.bmp,Bad,No,m,m,1,926
1,22,right,male,3,7,常人,C.bmp,Normal,Yes,n,n,1,889
1,22,right,male,3,8,善人,T.bmp,Good,Yes,n,n,1,780
1,22,right,male,3,9,善人,C.bmp,Normal,No,m,n,0,720
1,22,right,male,3,10,恶人,C.bmp,Normal,No,m,m,1,939
1,22,right,male,3,11,恶人,S.bmp,Bad,Yes,n,n,1,807
1,22,right,male,3,12,常人,S.bmp,Bad,No,m,n,0,746
1,22,right,male,3,13,常人,C.bmp,Normal,Yes,n,n,1,869
1,22,right,male,3,14,恶人,T.bmp,Good,No,m,m,1,697
1,22,right,male,3,15,善人,T.bmp,Good,Yes,n,n,1,740
1,22,right,male,3,16,常人,S.bmp,Bad,No,m,m,1,1088
1,22,right,male,3,17,善人,S.bmp,Bad,No,m,m,1,923
1,22,right,male,3,18,恶人,C.bmp,Normal,No,m,m,1,1007
1,22,right,male,3,19,常人,C.bmp,Normal,Yes,n,n,1,898
1,22,right,male,3,20,恶人,S.bmp,Bad,Yes,n,n,1,869
1,22,right,male,3,21,恶人,S.bmp,Bad,Yes,n,,0,0
1,22,right,male,3,22,善人,C.bmp,Normal,No,m,m,1,772
1,22,right,male,3,23,善人,T.bmp,Good,Yes,n,n,1,736
1,22,right,male,3,24,常人,T.bmp,Good,No,m,m,1,867
1,22,right,male,3,25,恶人,S.bmp,Bad,Yes,n,n,1,783
1,22,right,male,3,26,常人,S.bmp,Bad,No,m,m,1,914
1,22,right,male,3,27,恶人,S.bmp,Bad,Yes,n,m,0,924
1,22,right,male,3,28,善人,S.bmp,Bad,No,m,,0,0
1,22,right,male,3,29,恶人,C.bmp,Normal,No,m,n,0,867
1,22,right,male,3,30,善人,C.bmp,Normal,No,m,m,1,855
1,22,right,male,3,31,恶人,T.bmp,Good,No,m,m,1,706
1,22,right,male,3,32,善人,T.bmp,Good,Yes,n,n,1,709
1,22,right,male,3,33,常人,C.bmp,Normal,Yes,n,m,0,785
1,22,right,male,3,34,常人,C.bmp,Normal,Yes,n,n,1,820
1,22,right,male,3,35,善人,T.bmp,Good,Yes,n,m,0,680
1,22,right,male,3,36,常人,T.bmp,Good,No,m,m,1,1067
1,22,right,male,3,37,常人,C.bmp,Normal,Yes,n,n,1,1039
1,22,right,male,3,38,善人,C.bmp,Normal,No,m,m,1,810
1,22,right,male,3,39,常人,T.bmp,Good,No,m,m,1,893
1,22,right,male,3,40,恶人,T.bmp,Good,No,m,m,1,1017
1,22,right,male,3,41,恶人,C.bmp,Normal,No,m,n,0,868
1,22,right,male,3,42,恶人,S.bmp,Bad,Yes,n,m,0,664
1,22,right,male,3,43,常人,S.bmp,Bad,No,m,n,0,771
1,22,right,male,3,44,善人,S.bmp,Bad,No,m,m,1,855
1,22,right,male,3,45,常人,C.bmp,Normal,Yes,n,n,1,746
1,22,right,male,3,46,善人,T.bmp,Good,Yes,n,m,0,701
1,22,right,male,3,47,善人,T.bmp,Good,Yes,n,m,0,793
1,22,right,male,3,48,恶人,S.bmp,Bad,Yes,n,n,1,836
1,22,right,male,3,49,常人,S.bmp,Bad,No,m,m,1,808
1,22,right,male,3,50,常人,C.bmp,Normal,Yes,n,m,0,1043
1,22,right,male,3,51,恶人,C.bmp,Normal,No,m,,0,0
1,22,right,male,3,52,恶人,T.bmp,Good,No,m,n,0,850
1,22,right,male,3,53,善人,T.bmp,Good,Yes,n,m,0,917
1,22,right,male,3,54,善人,S.bmp,Bad,No,m,m,1,985
1,22,right,male,3,55,善人,C.bmp,Normal,No,m,,0,0
1,22,right,male,3,56,善人,T.bmp,Good,Yes,n,n,1,728
1,22,right,male,3,57,常人,T.bmp,Good,No,m,m,1,763
1,22,right,male,3,58,恶人,S.bmp,Bad,Yes,n,n,1,758
1,22,right,male,3,59,恶人,S.bmp,Bad,Yes,n,m,0,706
1,22,right,male,3,60,常人,C.bmp,Normal,Yes,n,m,0,853
1,22,right,male,4,1,善人,T.bmp,Good,Yes,n,n,1,746
1,22,right,male,4,2,常人,T.bmp,Good,No,m,m,1,605
1,22,right,male,4,3,恶人,C.bmp,Normal,No,m,m,1,880
1,22,right,male,4,4,善人,T.bmp,Good,Yes,n,n,1,636
1,22,right,male,4,5,常人,C.bmp,Normal,Yes,n,m,0,999
1,22,right,male,4,6,善人,C.bmp,Normal,No,m,m,1,875
1,22,right,male,4,7,善人,S.bmp,Bad,No,m,m,1,1094
1,22,right,male,4,8,常人,C.bmp,Normal,Yes,n,n,1,1026
1,22,right,male,4,9,恶人,S.bmp,Bad,Yes,n,n,1,941
1,22,right,male,4,10,常人,S.bmp,Bad,No,m,,0,0
1,22,right,male,4,11,恶人,T.bmp,Good,No,m,,0,0
1,22,right,male,4,12,恶人,S.bmp,Bad,Yes,n,m,0,655
1,22,right,male,4,13,恶人,T.bmp,Good,No,m,m,1,979
1,22,right,male,4,14,恶人,C.bmp,Normal,No,m,m,1,886
1,22,right,male,4,15,常人,T.bmp,Good,No,m,,0,0
1,22,right,male,4,16,恶人,S.bmp,Bad,Yes,n,,0,0
1,22,right,male,4,17,善人,T.bmp,Good,Yes,n,n,1,560
1,22,right,male,4,18,常人,C.bmp,Normal,Yes,n,m,0,636
1,22,right,male,4,19,善人,T.bmp,Good,Yes,n,n,1,751
1,22,right,male,4,20,善人,S.bmp,Bad,No,m,n,0,963
1,22,right,male,4,21,常人,S.bmp,Bad,No,m,m,1,1022
1,22,right,male,4,22,恶人,S.bmp,Bad,Yes,n,n,1,937
1,22,right,male,4,23,常人,C.bmp,Normal,Yes,n,m,0,725
1,22,right,male,4,24,善人,C.bmp,Normal,No,m,,0,0
1,22,right,male,4,25,常人,S.bmp,Bad,No,m,n,0,908
1,22,right,male,4,26,常人,T.bmp,Good,No,m,n,0,1039
1,22,right,male,4,27,善人,T.bmp,Good,Yes,n,n,1,715
1,22,right,male,4,28,恶人,S.bmp,Bad,Yes,n,n,1,854
1,22,right,male,4,29,恶人,C.bmp,Normal,No,m,m,1,833
1,22,right,male,4,30,常人,C.bmp,Normal,Yes,n,,0,0
1,22,right,male,4,31,恶人,T.bmp,Good,No,m,m,1,1039
1,22,right,male,4,32,善人,S.bmp,Bad,No,m,m,1,931
1,22,right,male,4,33,善人,C.bmp,Normal,No,m,m,1,806
1,22,right,male,4,34,善人,T.bmp,Good,Yes,n,n,1,881
1,22,right,male,4,35,恶人,S.bmp,Bad,Yes,n,n,1,773
1,22,right,male,4,36,常人,C.bmp,Normal,Yes,n,n,1,984
1,22,right,male,4,37,善人,S.bmp,Bad,No,m,m,1,876
1,22,right,male,4,38,恶人,T.bmp,Good,No,m,m,1,943
1,22,right,male,4,39,善人,T.bmp,Good,Yes,n,n,1,883
1,22,right,male,4,40,常人,T.bmp,Good,No,m,m,1,790
1,22,right,male,4,41,恶人,S.bmp,Bad,Yes,n,n,1,953
1,22,right,male,4,42,善人,T.bmp,Good,Yes,n,,0,0
1,22,right,male,4,43,恶人,C.bmp,Normal,No,m,m,1,712
1,22,right,male,4,44,善人,C.bmp,Normal,No,m,m,1,764
1,22,right,male,4,45,常人,C.bmp,Normal,Yes,n,n,1,631
1,22,right,male,4,46,恶人,S.bmp,Bad,Yes,n,n,1,835
1,22,right,male,4,47,常人,C.bmp,Normal,Yes,n,m,0,702
1,22,right,male,4,48,常人,S.bmp,Bad,No,m,m,1,809
1,22,right,male,4,49,恶人,T.bmp,Good,No,m,n,0,861
1,22,right,male,4,50,常人,T.bmp,Good,No,m,m,1,864
1,22,right,male,4,51,恶人,S.bmp,Bad,Yes,n,n,1,764
1,22,right,male,4,52,善人,S.bmp,Bad,No,m,m,1,847
1,22,right,male,4,53,常人,C.bmp,Normal,Yes,n,n,1,826
1,22,right,male,4,54,常人,S.bmp,Bad,No,m,m,1,854
1,22,right,male,4,55,善人,T.bmp,Good,Yes,n,m,0,785
1,22,right,male,4,56,常人,C.bmp,Normal,Yes,n,n,1,805
1,22,right,male,4,57,恶人,S.bmp,Bad,Yes,n,m,0,608
1,22,right,male,4,58,善人,T.bmp,Good,Yes,n,m,0,932
1,22,right,male,4,59,善人,C.bmp,Normal,No,m,m,1,975
1,22,right,male,4,60,恶人,C.bmp,Normal,No,m,m,1,962
1,22,right,male,5,1,常人,C.bmp,Normal,Yes,n,m,0,671
1,22,right,male,5,2,常人,T.bmp,Good,No,m,m,1,786
1,22,right,male,5,3,恶人,S.bmp,Bad,Yes,n,n,1,758
1,22,right,male,5,4,善人,T.bmp,Good,Yes,n,n,1,689
1,22,right,male,5,5,常人,S.bmp,Bad,No,m,,0,0
1,22,right,male,5,6,善人,C.bmp,Normal,No,m,m,1,816
1,22,right,male,5,7,恶人,C.bmp,Normal,No,m,m,1,859
1,22,right,male,5,8,恶人,T.bmp,Good,No,m,m,1,879
1,22,right,male,5,9,恶人,S.bmp,Bad,Yes,n,n,1,698
1,22,right,male,5,10,善人,S.bmp,Bad,No,m,n,0,742
1,22,right,male,5,11,善人,T.bmp,Good,Yes,n,m,0,721
1,22,right,male,5,12,常人,C.bmp,Normal,Yes,n,n,1,916
1,22,right,male,5,13,善人,T.bmp,Good,Yes,n,n,1,784
1,22,right,male,5,14,常人,T.bmp,Good,No,m,m,1,675
1,22,right,male,5,15,常人,C.bmp,Normal,Yes,n,n,1,975
1,22,right,male,5,16,善人,C.bmp,Normal,No,m,,0,0
1,22,right,male,5,17,恶人,T.bmp,Good,No,m,m,1,837
1,22,right,male,5,18,常人,S.bmp,Bad,No,m,m,1,937
1,22,right,male,5,19,善人,T.bmp,Good,Yes,n,n,1,796
1,22,right,male,5,20,恶人,C.bmp,Normal,No,m,m,1,1024
1,22,right,male,5,21,恶人,S.bmp,Bad,Yes,n,n,1,747
1,22,right,male,5,22,常人,C.bmp,Normal,Yes,n,m,0,727
1,22,right,male,5,23,善人,S.bmp,Bad,No,m,m,1,986
1,22,right,male,5,24,恶人,S.bmp,Bad,Yes,n,n,1,733
1,22,right,male,5,25,恶人,S.bmp,Bad,Yes,n,n,1,633
1,22,right,male,5,26,恶人,S.bmp,Bad,Yes,n,n,1,532
1,22,right,male,5,27,常人,T.bmp,Good,No,m,m,1,856
1,22,right,male,5,28,常人,C.bmp,Normal,Yes,n,n,1,627
1,22,right,male,5,29,常人,C.bmp,Normal,Yes,n,m,0,783
1,22,right,male,5,30,善人,S.bmp,Bad,No,m,m,1,754
1,22,right,male,5,31,恶人,T.bmp,Good,No,m,m,1,877
1,22,right,male,5,32,善人,T.bmp,Good,Yes,n,n,1,753
1,22,right,male,5,33,常人,S.bmp,Bad,No,m,m,1,899
1,22,right,male,5,34,善人,T.bmp,Good,Yes,n,n,1,703
1,22,right,male,5,35,恶人,C.bmp,Normal,No,m,n,0,906
1,22,right,male,5,36,善人,C.bmp,Normal,No,m,m,1,869
1,22,right,male,5,37,常人,C.bmp,Normal,Yes,n,n,1,825
1,22,right,male,5,38,常人,S.bmp,Bad,No,m,m,1,908
1,22,right,male,5,39,常人,T.bmp,Good,No,m,m,1,824
1,22,right,male,5,40,恶人,S.bmp,Bad,Yes,n,n,1,715
1,22,right,male,5,41,常人,C.bmp,Normal,Yes,n,n,1,847
1,22,right,male,5,42,善人,C.bmp,Normal,No,m,m,1,794
1,22,right,male,5,43,恶人,T.bmp,Good,No,m,m,1,685
1,22,right,male,5,44,恶人,S.bmp,Bad,Yes,n,,0,0
1,22,right,male,5,45,善人,S.bmp,Bad,No,m,m,1,724
1,22,right,male,5,46,善人,T.bmp,Good,Yes,n,n,1,656
1,22,right,male,5,47,恶人,C.bmp,Normal,No,m,m,1,1027
1,22,right,male,5,48,善人,T.bmp,Good,Yes,n,n,1,687
1,22,right,male,5,49,善人,T.bmp,Good,Yes,n,n,1,666
1,22,right,male,5,50,善人,S.bmp,Bad,No,m,m,1,997
1,22,right,male,5,51,常人,C.bmp,Normal,Yes,n,n,1,769
1,22,right,male,5,52,常人,T.bmp,Good,No,m,,0,0
1,22,right,male,5,53,常人,S.bmp,Bad,No,m,m,1,1032
1,22,right,male,5,54,善人,T.bmp,Good,Yes,n,n,1,603
1,22,right,male,5,55,常人,C.bmp,Normal,Yes,n,n,1,790
1,22,right,male,5,56,恶人,S.bmp,Bad,Yes,n,n,1,802
1,22,right,male,5,57,恶人,T.bmp,Good,No,m,m,1,789
1,22,right,male,5,58,善人,C.bmp,Normal,No,m,n,0,761
1,22,right,male,5,59,恶人,S.bmp,Bad,Yes,n,m,0,932
1,22,right,male,5,60,恶人,C.bmp,Normal,No,m,m,1,848
1,22,right,male,6,1,善人,T.bmp,Good,Yes,n,m,0,725
1,22,right,male,6,2,善人,T.bmp,Good,Yes,n,n,1,655
1,22,right,male,6,3,善人,C.bmp,Normal,No,m,m,1,683
1,22,right,male,6,4,常人,T.bmp,Good,No,m,m,1,822
1,22,right,male,6,5,善人,S.bmp,Bad,No,m,m,1,794
1,22,right,male,6,6,常人,S.bmp,Bad,No,m,m,1,701
1,22,right,male,6,7,恶人,S.bmp,Bad,Yes,n,n,1,688
1,22,right,male,6,8,恶人,C.bmp,Normal,No,m,m,1,684
1,22,right,male,6,9,常人,C.bmp,Normal,Yes,n,n,1,703
1,22,right,male,6,10,恶人,S.bmp,Bad,Yes,n,n,1,819
1,22,right,male,6,11,恶人,T.bmp,Good,No,m,m,1,678
1,22,right,male,6,12,常人,C.bmp,Normal,Yes,n,m,0,970
1,22,right,male,6,13,善人,T.bmp,Good,Yes,n,n,1,709
1,22,right,male,6,14,善人,S.bmp,Bad,No,m,m,1,640
1,22,right,male,6,15,善人,C.bmp,Normal,No,m,m,1,828
1,22,right,male,6,16,善人,T.bmp,Good,Yes,n,n,1,871
1,22,right,male,6,17,恶人,S.bmp,Bad,Yes,n,n,1,803
1,22,right,male,6,18,恶人,T.bmp,Good,No,m,m,1,702
1,22,right,male,6,19,常人,T.bmp,Good,No,m,m,1,857
1,22,right,male,6,20,恶人,C.bmp,Normal,No,m,n,0,685
1,22,right,male,6,21,常人,S.bmp,Bad,No,m,n,0,816
1,22,right,male,6,22,常人,C.bmp,Normal,Yes,n,n,1,668
1,22,right,male,6,23,常人,C.bmp,Normal,Yes,n,n,1,727
1,22,right,male,6,24,恶人,S.bmp,Bad,Yes,n,n,1,819
1,22,right,male,6,25,善人,T.bmp,Good,Yes,n,n,1,686
1,22,right,male,6,26,常人,S.bmp,Bad,No,m,m,1,809
1,22,right,male,6,27,恶人,S.bmp,Bad,Yes,n,m,0,1045
1,22,right,male,6,28,恶人,C.bmp,Normal,No,m,m,1,688
1,22,right,male,6,29,善人,T.bmp,Good,Yes,n,n,1,716
1,22,right,male,6,30,常人,C.bmp,Normal,Yes,n,n,1,759
1,22,right,male,6,31,善人,C.bmp,Normal,No,m,m,1,834
1,22,right,male,6,32,常人,C.bmp,Normal,Yes,n,n,1,910
1,22,right,male,6,33,恶人,S.bmp,Bad,Yes,n,m,0,785
1,22,right,male,6,34,常人,T.bmp,Good,No,m,m,1,765
1,22,right,male,6,35,恶人,T.bmp,Good,No,m,n,0,968
1,22,right,male,6,36,善人,S.bmp,Bad,No,m,m,1,1075
1,22,right,male,6,37,善人,S.bmp,Bad,No,m,m,1,798
1,22,right,male,6,38,善人,T.bmp,Good,Yes,n,m,0,721
1,22,right,male,6,39,常人,S.bmp,Bad,No,m,m,1,997
1,22,right,male,6,40,善人,T.bmp,Good,Yes,n,n,1,720
1,22,right,male,6,41,恶人,S.bmp,Bad,Yes,n,n,1,788
1,22,right,male,6,42,常人,T.bmp,Good,No,m,m,1,839
1,22,right,male,6,43,恶人,C.bmp,Normal,No,m,m,1,907
1,22,right,male,6,44,常人,C.bmp,Normal,Yes,n,n,1,822
1,22,right,male,6,45,恶人,T.bmp,Good,No,m,m,1,609
1,22,right,male,6,46,常人,C.bmp,Normal,Yes,n,n,1,781
1,22,right,male,6,47,恶人,S.bmp,Bad,Yes,n,n,1,1088
1,22,right,male,6,48,善人,C.bmp,Normal,No,m,m,1,804
1,22,right,male,6,49,恶人,C.bmp,Normal,No,m,m,1,735
1,22,right,male,6,50,善人,T.bmp,Good,Yes,n,m,0,746
1,22,right,male,6,51,恶人,T.bmp,Good,No,m,m,1,662
1,22,right,male,6,52,常人,S.bmp,Bad,No,m,,0,0
1,22,right,male,6,53,常人,T.bmp,Good,No,m,m,1,821
1,22,right,male,6,54,恶人,S.bmp,Bad,Yes,n,n,1,800
1,22,right,male,6,55,常人,C.bmp,Normal,Yes,n,n,1,724
1,22,right,male,6,56,善人,S.bmp,Bad,No,m,m,1,919
1,22,right,male,6,57,常人,C.bmp,Normal,Yes,n,n,1,714
1,22,right,male,6,58,善人,C.bmp,Normal,No,m,m,1,934
1,22,right,male,6,59,恶人,S.bmp,Bad,Yes,n,n,1,761
1,22,right,male,6,60,善人,T.bmp,Good,Yes,n,m,0,573
10,19,right,male,,1,善人,S.bmp,Bad,No,n,,0,0
10,19,right,male,,2,常人,C.bmp,Normal,Yes,m,,0,0
10,19,right,male,,3,善人,C.bmp,Normal,No,n,m,0,298
10,19,right,male,,4,恶人,C.bmp,Normal,No,n,,0,0
10,19,right,male,,5,恶人,T.bmp,Good,No,n,,0,0
10,19,right,male,,6,常人,T.bmp,Good,No,n,n,1,196
10,19,right,male,,7,善人,T.bmp,Good,Yes,m,n,0,280
10,19,right,male,,8,常人,S.bmp,Bad,No,n,m,0,305
10,19,right,male,,9,常人,C.bmp,Normal,Yes,m,m,1,203
10,19,right,male,,10,善人,T.bmp,Good,Yes,m,n,0,611
10,19,right,male,,11,恶人,S.bmp,Bad,Yes,m,m,1,360
10,19,right,male,,12,恶人,S.bmp,Bad,Yes,m,m,1,611
10,19,right,male,,13,恶人,S.bmp,Bad,Yes,m,n,0,641
10,19,right,male,,14,常人,T.bmp,Good,No,n,n,1,909
10,19,right,male,,15,常人,S.bmp,Bad,No,n,m,0,730
10,19,right,male,,16,善人,C.bmp,Normal,No,n,n,1,495
10,19,right,male,,17,常人,C.bmp,Normal,Yes,m,n,0,600
10,19,right,male,,18,善人,T.bmp,Good,Yes,m,m,1,473
10,19,right,male,,19,恶人,S.bmp,Bad,Yes,m,m,1,491
10,19,right,male,,20,恶人,C.bmp,Normal,No,n,m,0,617
10,19,right,male,,21,恶人,T.bmp,Good,No,n,n,1,639
10,19,right,male,,22,善人,S.bmp,Bad,No,n,n,1,413
10,19,right,male,,23,常人,C.bmp,Normal,Yes,m,n,0,384
10,19,right,male,,24,善人,T.bmp,Good,Yes,m,m,1,408
10,19,right,male,1,1,常人,S.bmp,Bad,No,n,n,1,317
10,19,right,male,1,2,恶人,S.bmp,Bad,Yes,m,m,1,347
10,19,right,male,1,3,常人,C.bmp,Normal,Yes,m,n,0,854
10,19,right,male,1,4,善人,T.bmp,Good,Yes,m,n,0,639
10,19,right,male,1,5,恶人,S.bmp,Bad,Yes,m,m,1,596
10,19,right,male,1,6,善人,C.bmp,Normal,No,n,m,0,806
10,19,right,male,1,7,常人,T.bmp,Good,No,n,n,1,906
10,19,right,male,1,8,恶人,C.bmp,Normal,No,n,m,0,634
10,19,right,male,1,9,常人,C.bmp,Normal,Yes,m,m,1,690
10,19,right,male,1,10,善人,S.bmp,Bad,No,n,m,0,1001
10,19,right,male,1,11,恶人,T.bmp,Good,No,n,n,1,631
10,19,right,male,1,12,善人,T.bmp,Good,Yes,m,n,0,566
10,19,right,male,1,13,善人,T.bmp,Good,Yes,m,m,1,479
10,19,right,male,1,14,善人,C.bmp,Normal,No,n,m,0,401
10,19,right,male,1,15,善人,T.bmp,Good,Yes,m,m,1,410
10,19,right,male,1,16,恶人,C.bmp,Normal,No,n,m,0,454
10,19,right,male,1,17,常人,S.bmp,Bad,No,n,m,0,336
10,19,right,male,1,18,恶人,S.bmp,Bad,Yes,m,n,0,433
10,19,right,male,1,19,常人,T.bmp,Good,No,n,n,1,361
10,19,right,male,1,20,恶人,S.bmp,Bad,Yes,m,n,0,315
10,19,right,male,1,21,常人,C.bmp,Normal,Yes,m,m,1,283
10,19,right,male,1,22,常人,C.bmp,Normal,Yes,m,m,1,559
10,19,right,male,1,23,善人,S.bmp,Bad,No,n,n,1,435
10,19,right,male,1,24,恶人,T.bmp,Good,No,n,n,1,558
10,19,right,male,1,25,善人,S.bmp,Bad,No,n,m,0,686
10,19,right,male,1,26,恶人,C.bmp,Normal,No,n,n,1,660
10,19,right,male,1,27,恶人,T.bmp,Good,No,n,n,1,893
10,19,right,male,1,28,常人,C.bmp,Normal,Yes,m,n,0,759
10,19,right,male,1,29,善人,T.bmp,Good,Yes,m,n,0,530
10,19,right,male,1,30,恶人,S.bmp,Bad,Yes,m,m,1,864
10,19,right,male,1,31,常人,C.bmp,Normal,Yes,m,n,0,478
10,19,right,male,1,32,常人,T.bmp,Good,No,n,m,0,449
10,19,right,male,1,33,常人,S.bmp,Bad,No,n,m,0,252
10,19,right,male,1,34,善人,T.bmp,Good,Yes,m,m,1,300
10,19,right,male,1,35,恶人,S.bmp,Bad,Yes,m,n,0,450
10,19,right,male,1,36,善人,C.bmp,Normal,No,n,m,0,466
10,19,right,male,1,37,恶人,T.bmp,Good,No,n,n,1,798
10,19,right,male,1,38,常人,C.bmp,Normal,Yes,m,,0,0
10,19,right,male,1,39,善人,T.bmp,Good,Yes,m,,0,0
10,19,right,male,1,40,善人,C.bmp,Normal,No,n,,0,0
10,19,right,male,1,41,常人,C.bmp,Normal,Yes,m,,0,0
10,19,right,male,1,42,常人,T.bmp,Good,No,n,,0,0
10,19,right,male,1,43,恶人,C.bmp,Normal,No,n,,0,0
10,19,right,male,1,44,善人,T.bmp,Good,Yes,m,,0,0
10,19,right,male,1,45,恶人,S.bmp,Bad,Yes,m,,0,0
10,19,right,male,1,46,恶人,S.bmp,Bad,Yes,m,,0,0
10,19,right,male,1,47,常人,S.bmp,Bad,No,n,,0,0
10,19,right,male,1,48,善人,S.bmp,Bad,No,n,,0,0
10,19,right,male,1,49,恶人,S.bmp,Bad,Yes,m,,0,0
10,19,right,male,1,50,常人,S.bmp,Bad,No,n,,0,0
10,19,right,male,1,51,善人,T.bmp,Good,Yes,m,,0,0
10,19,right,male,1,52,恶人,C.bmp,Normal,No,n,n,1,40
10,19,right,male,1,53,常人,T.bmp,Good,No,n,n,1,236
10,19,right,male,1,54,常人,C.bmp,Normal,Yes,m,,0,0
10,19,right,male,1,55,恶人,T.bmp,Good,No,n,,0,0
10,19,right,male,1,56,善人,C.bmp,Normal,No,n,,0,0
10,19,right,male,1,57,恶人,S.bmp,Bad,Yes,m,,0,0
10,19,right,male,1,58,常人,C.bmp,Normal,Yes,m,,0,0
10,19,right,male,1,59,善人,S.bmp,Bad,No,n,n,1,197
10,19,right,male,1,60,善人,T.bmp,Good,Yes,m,n,0,295
10,19,right,male,2,1,善人,C.bmp,Normal,No,n,m,0,509
10,19,right,male,2,2,恶人,T.bmp,Good,No,n,m,0,1077
10,19,right,male,2,3,恶人,C.bmp,Normal,No,n,n,1,563
10,19,right,male,2,4,善人,S.bmp,Bad,No,n,n,1,852
10,19,right,male,2,5,善人,T.bmp,Good,Yes,m,,0,0
10,19,right,male,2,6,恶人,S.bmp,Bad,Yes,m,,0,0
10,19,right,male,2,7,恶人,S.bmp,Bad,Yes,m,n,0,251
10,19,right,male,2,8,常人,T.bmp,Good,No,n,m,0,465
10,19,right,male,2,9,常人,C.bmp,Normal,Yes,m,m,1,609
10,19,right,male,2,10,常人,C.bmp,Normal,Yes,m,n,0,441
10,19,right,male,2,11,善人,T.bmp,Good,Yes,m,m,1,424
10,19,right,male,2,12,常人,S.bmp,Bad,No,n,m,0,539
10,19,right,male,2,13,恶人,T.bmp,Good,No,n,m,0,506
10,19,right,male,2,14,善人,T.bmp,Good,Yes,m,m,1,733
10,19,right,male,2,15,常人,T.bmp,Good,No,n,m,0,927
10,19,right,male,2,16,常人,S.bmp,Bad,No,n,m,0,588
10,19,right,male,2,17,善人,S.bmp,Bad,No,n,n,1,648
10,19,right,male,2,18,善人,T.bmp,Good,Yes,m,n,0,899
10,19,right,male,2,19,常人,C.bmp,Normal,Yes,m,,0,0
10,19,right,male,2,20,恶人,S.bmp,Bad,Yes,m,,0,0
10,19,right,male,2,21,常人,C.bmp,Normal,Yes,m,m,1,322
10,19,right,male,2,22,恶人,C.bmp,Normal,No,n,m,0,389
10,19,right,male,2,23,善人,C.bmp,Normal,No,n,,0,0
10,19,right,male,2,24,恶人,S.bmp,Bad,Yes,m,m,1,336
10,19,right,male,2,25,恶人,S.bmp,Bad,Yes,m,,0,0
10,19,right,male,2,26,恶人,S.bmp,Bad,Yes,m,n,0,395
10,19,right,male,2,27,善人,T.bmp,Good,Yes,m,m,1,688
10,19,right,male,2,28,善人,T.bmp,Good,Yes,m,m,1,722
10,19,right,male,2,29,善人,C.bmp,Normal,No,n,m,0,485
10,19,right,male,2,30,常人,S.bmp,Bad,No,n,,0,0
10,19,right,male,2,31,常人,C.bmp,Normal,Yes,m,n,0,1072
10,19,right,male,2,32,常人,T.bmp,Good,No,n,m,0,718
10,19,right,male,2,33,常人,C.bmp,Normal,Yes,m,n,0,536
10,19,right,male,2,34,善人,S.bmp,Bad,No,n,m,0,694
10,19,right,male,2,35,恶人,C.bmp,Normal,No,n,m,0,592
10,19,right,male,2,36,恶人,T.bmp,Good,No,n,,0,0
10,19,right,male,2,37,常人,S.bmp,Bad,No,n,n,1,351
10,19,right,male,2,38,恶人,S.bmp,Bad,Yes,m,m,1,1004
10,19,right,male,2,39,善人,S.bmp,Bad,No,n,n,1,916
10,19,right,male,2,40,恶人,C.bmp,Normal,No,n,m,0,631
10,19,right,male,2,41,常人,T.bmp,Good,No,n,n,1,999
10,19,right,male,2,42,恶人,S.bmp,Bad,Yes,m,m,1,714
10,19,right,male,2,43,常人,C.bmp,Normal,Yes,m,n,0,533
10,19,right,male,2,44,善人,T.bmp,Good,Yes,m,m,1,778
10,19,right,male,2,45,常人,C.bmp,Normal,Yes,m,m,1,796
10,19,right,male,2,46,善人,C.bmp,Normal,No,n,m,0,485
10,19,right,male,2,47,善人,T.bmp,Good,Yes,m,m,1,402
10,19,right,male,2,48,恶人,T.bmp,Good,No,n,n,1,530
10,19,right,male,2,49,善人,C.bmp,Normal,No,n,m,0,386
10,19,right,male,2,50,恶人,S.bmp,Bad,Yes,m,n,0,344
10,19,right,male,2,51,常人,T.bmp,Good,No,n,,0,0
10,19,right,male,2,52,常人,S.bmp,Bad,No,n,m,0,383
10,19,right,male,2,53,常人,C.bmp,Normal,Yes,m,n,0,257
10,19,right,male,2,54,常人,C.bmp,Normal,Yes,m,,0,0
10,19,right,male,2,55,善人,T.bmp,Good,Yes,m,m,1,255
10,19,right,male,2,56,善人,T.bmp,Good,Yes,m,m,1,401
10,19,right,male,2,57,善人,S.bmp,Bad,No,n,n,1,454
10,19,right,male,2,58,恶人,T.bmp,Good,No,n,m,0,705
10,19,right,male,2,59,恶人,S.bmp,Bad,Yes,m,n,0,679
10,19,right,male,2,60,恶人,C.bmp,Normal,No,n,,0,0
10,19,right,male,3,1,善人,T.bmp,Good,Yes,m,n,0,655
10,19,right,male,3,2,常人,C.bmp,Normal,Yes,m,n,0,843
10,19,right,male,3,3,善人,C.bmp,Normal,No,n,m,0,913
10,19,right,male,3,4,善人,T.bmp,Good,Yes,m,m,1,743
10,19,right,male,3,5,常人,C.bmp,Normal,Yes,m,m,1,689
10,19,right,male,3,6,常人,S.bmp,Bad,No,n,m,0,459
10,19,right,male,3,7,善人,S.bmp,Bad,No,n,n,1,592
10,19,right,male,3,8,恶人,T.bmp,Good,No,n,m,0,664
10,19,right,male,3,9,常人,T.bmp,Good,No,n,n,1,683
10,19,right,male,3,10,恶人,S.bmp,Bad,Yes,m,n,0,581
10,19,right,male,3,11,恶人,C.bmp,Normal,No,n,n,1,666
10,19,right,male,3,12,恶人,S.bmp,Bad,Yes,m,m,1,705
10,19,right,male,3,13,恶人,S.bmp,Bad,Yes,m,m,1,621
10,19,right,male,3,14,常人,T.bmp,Good,No,n,n,1,510
10,19,right,male,3,15,常人,C.bmp,Normal,Yes,m,m,1,614
10,19,right,male,3,16,善人,T.bmp,Good,Yes,m,n,0,628
10,19,right,male,3,17,恶人,T.bmp,Good,No,n,m,0,583
10,19,right,male,3,18,常人,C.bmp,Normal,Yes,m,m,1,572
10,19,right,male,3,19,常人,S.bmp,Bad,No,n,m,0,820
10,19,right,male,3,20,恶人,C.bmp,Normal,No,n,m,0,686
10,19,right,male,3,21,善人,C.bmp,Normal,No,n,n,1,576
10,19,right,male,3,22,善人,S.bmp,Bad,No,n,n,1,744
10,19,right,male,3,23,恶人,S.bmp,Bad,Yes,m,n,0,708
10,19,right,male,3,24,善人,T.bmp,Good,Yes,m,m,1,661
10,19,right,male,3,25,恶人,C.bmp,Normal,No,n,m,0,725
10,19,right,male,3,26,常人,C.bmp,Normal,Yes,m,n,0,747
10,19,right,male,3,27,善人,S.bmp,Bad,No,n,m,0,694
10,19,right,male,3,28,善人,C.bmp,Normal,No,n,n,1,610
10,19,right,male,3,29,善人,T.bmp,Good,Yes,m,n,0,515
10,19,right,male,3,30,善人,T.bmp,Good,Yes,m,m,1,607
10,19,right,male,3,31,常人,C.bmp,Normal,Yes,m,m,1,657
10,19,right,male,3,32,恶人,S.bmp,Bad,Yes,m,n,0,528
10,19,right,male,3,33,常人,S.bmp,Bad,No,n,m,0,470
10,19,right,male,3,34,常人,T.bmp,Good,No,n,n,1,801
10,19,right,male,3,35,恶人,T.bmp,Good,No,n,n,1,806
10,19,right,male,3,36,恶人,S.bmp,Bad,Yes,m,,0,0
10,19,right,male,3,37,恶人,C.bmp,Normal,No,n,m,0,840
10,19,right,male,3,38,善人,C.bmp,Normal,No,n,n,1,598
10,19,right,male,3,39,常人,C.bmp,Normal,Yes,m,m,1,556
10,19,right,male,3,40,常人,S.bmp,Bad,No,n,n,1,626
10,19,right,male,3,41,恶人,T.bmp,Good,No,n,m,0,757
10,19,right,male,3,42,常人,C.bmp,Normal,Yes,m,n,0,632
10,19,right,male,3,43,恶人,S.bmp,Bad,Yes,m,m,1,893
10,19,right,male,3,44,常人,T.bmp,Good,No,n,m,0,681
10,19,right,male,3,45,善人,T.bmp,Good,Yes,m,n,0,609
10,19,right,male,3,46,恶人,S.bmp,Bad,Yes,m,m,1,603
10,19,right,male,3,47,善人,S.bmp,Bad,No,n,m,0,514
10,19,right,male,3,48,善人,T.bmp,Good,Yes,m,n,0,557
10,19,right,male,3,49,恶人,S.bmp,Bad,Yes,m,n,0,758
10,19,right,male,3,50,常人,T.bmp,Good,No,n,m,0,618
10,19,right,male,3,51,恶人,C.bmp,Normal,No,n,n,1,601
10,19,right,male,3,52,常人,S.bmp,Bad,No,n,n,1,590
10,19,right,male,3,53,善人,S.bmp,Bad,No,n,n,1,370
10,19,right,male,3,54,善人,T.bmp,Good,Yes,m,m,1,320
10,19,right,male,3,55,恶人,T.bmp,Good,No,n,n,1,464
10,19,right,male,3,56,常人,C.bmp,Normal,Yes,m,m,1,284
10,19,right,male,3,57,常人,C.bmp,Normal,Yes,m,n,0,275
10,19,right,male,3,58,善人,C.bmp,Normal,No,n,m,0,462
10,19,right,male,3,59,善人,T.bmp,Good,Yes,m,m,1,856
10,19,right,male,3,60,恶人,S.bmp,Bad,Yes,m,n,0,732
10,19,right,male,4,1,善人,C.bmp,Normal,No,n,n,1,771
10,19,right,male,4,2,善人,S.bmp,Bad,No,n,n,1,832
10,19,right,male,4,3,恶人,C.bmp,Normal,No,n,m,0,650
10,19,right,male,4,4,善人,T.bmp,Good,Yes,m,n,0,857
10,19,right,male,4,5,常人,T.bmp,Good,No,n,m,0,735
10,19,right,male,4,6,常人,C.bmp,Normal,Yes,m,m,1,719
10,19,right,male,4,7,善人,T.bmp,Good,Yes,m,,0,0
10,19,right,male,4,8,恶人,S.bmp,Bad,Yes,m,m,1,591
10,19,right,male,4,9,常人,S.bmp,Bad,No,n,m,0,668
10,19,right,male,4,10,恶人,S.bmp,Bad,Yes,m,n,0,485
10,19,right,male,4,11,常人,C.bmp,Normal,Yes,m,,0,0
10,19,right,male,4,12,恶人,T.bmp,Good,No,n,,0,0
10,19,right,male,4,13,常人,T.bmp,Good,No,n,n,1,406
10,19,right,male,4,14,恶人,C.bmp,Normal,No,n,m,0,532
10,19,right,male,4,15,恶人,T.bmp,Good,No,n,n,1,695
10,19,right,male,4,16,常人,C.bmp,Normal,Yes,m,n,0,941
10,19,right,male,4,17,善人,S.bmp,Bad,No,n,m,0,586
10,19,right,male,4,18,恶人,S.bmp,Bad,Yes,m,n,0,234
10,19,right,male,4,19,善人,C.bmp,Normal,No,n,,0,0
10,19,right,male,4,20,常人,C.bmp,Normal,Yes,m,m,1,29
10,19,right,male,4,21,常人,S.bmp,Bad,No,n,m,0,269
10,19,right,male,4,22,善人,T.bmp,Good,Yes,m,m,1,823
10,19,right,male,4,23,善人,T.bmp,Good,Yes,m,m,1,605
10,19,right,male,4,24,恶人,S.bmp,Bad,Yes,m,n,0,619
10,19,right,male,4,25,恶人,C.bmp,Normal,No,n,m,0,525
10,19,right,male,4,26,恶人,S.bmp,Bad,Yes,m,n,0,374
10,19,right,male,4,27,善人,T.bmp,Good,Yes,m,n,0,287
10,19,right,male,4,28,善人,T.bmp,Good,Yes,m,m,1,301
10,19,right,male,4,29,常人,S.bmp,Bad,No,n,n,1,821
10,19,right,male,4,30,常人,T.bmp,Good,No,n,n,1,897
10,19,right,male,4,31,善人,C.bmp,Normal,No,n,m,0,573
10,19,right,male,4,32,恶人,S.bmp,Bad,Yes,m,n,0,599
10,19,right,male,4,33,恶人,T.bmp,Good,No,n,m,0,768
10,19,right,male,4,34,常人,C.bmp,Normal,Yes,m,n,0,750
10,19,right,male,4,35,善人,S.bmp,Bad,No,n,m,0,318
10,19,right,male,4,36,常人,C.bmp,Normal,Yes,m,m,1,169
10,19,right,male,4,37,常人,C.bmp,Normal,Yes,m,m,1,225
10,19,right,male,4,38,恶人,C.bmp,Normal,No,n,,0,0
10,19,right,male,4,39,善人,S.bmp,Bad,No,n,m,0,140
10,19,right,male,4,40,常人,S.bmp,Bad,No,n,,0,0
10,19,right,male,4,41,常人,C.bmp,Normal,Yes,m,n,0,100
10,19,right,male,4,42,恶人,S.bmp,Bad,Yes,m,,0,0
10,19,right,male,4,43,善人,T.bmp,Good,Yes,m,m,1,27
10,19,right,male,4,44,常人,T.bmp,Good,No,n,m,0,528
10,19,right,male,4,45,恶人,S.bmp,Bad,Yes,m,n,0,867
10,19,right,male,4,46,善人,C.bmp,Normal,No,n,,0,0
10,19,right,male,4,47,善人,T.bmp,Good,Yes,m,m,1,872
10,19,right,male,4,48,恶人,T.bmp,Good,No,n,n,1,687
10,19,right,male,4,49,常人,T.bmp,Good,No,n,m,0,525
10,19,right,male,4,50,恶人,S.bmp,Bad,Yes,m,,0,0
10,19,right,male,4,51,恶人,C.bmp,Normal,No,n,m,0,384
10,19,right,male,4,52,善人,S.bmp,Bad,No,n,n,1,142
10,19,right,male,4,53,常人,C.bmp,Normal,Yes,m,n,0,313
10,19,right,male,4,54,善人,T.bmp,Good,Yes,m,m,1,344
10,19,right,male,4,55,恶人,S.bmp,Bad,Yes,m,m,1,393
10,19,right,male,4,56,善人,C.bmp,Normal,No,n,m,0,346
10,19,right,male,4,57,常人,S.bmp,Bad,No,n,m,0,721
10,19,right,male,4,58,恶人,T.bmp,Good,No,n,n,1,368
10,19,right,male,4,59,善人,T.bmp,Good,Yes,m,m,1,174
10,19,right,male,4,60,常人,C.bmp,Normal,Yes,m,,0,0
10,19,right,male,5,1,恶人,S.bmp,Bad,Yes,m,,0,0
10,19,right,male,5,2,恶人,C.bmp,Normal,No,n,,0,0
10,19,right,male,5,3,善人,T.bmp,Good,Yes,m,m,1,555
10,19,right,male,5,4,善人,C.bmp,Normal,No,n,n,1,717
10,19,right,male,5,5,常人,T.bmp,Good,No,n,,0,0
10,19,right,male,5,6,常人,C.bmp,Normal,Yes,m,,0,0
10,19,right,male,5,7,善人,S.bmp,Bad,No,n,m,0,389
10,19,right,male,5,8,常人,C.bmp,Normal,Yes,m,n,0,875
10,19,right,male,5,9,善人,T.bmp,Good,Yes,m,,0,0
10,19,right,male,5,10,常人,S.bmp,Bad,No,n,m,0,238
10,19,right,male,5,11,恶人,S.bmp,Bad,Yes,m,m,1,447
10,19,right,male,5,12,恶人,T.bmp,Good,No,n,m,0,711
10,19,right,male,5,13,常人,C.bmp,Normal,Yes,m,m,1,374
10,19,right,male,5,14,恶人,C.bmp,Normal,No,n,,0,0
10,19,right,male,5,15,善人,C.bmp,Normal,No,n,,0,0
10,19,right,male,5,16,常人,C.bmp,Normal,Yes,m,,0,0
10,19,right,male,5,17,善人,T.bmp,Good,Yes,m,,0,0
10,19,right,male,5,18,善人,T.bmp,Good,Yes,m,,0,0
10,19,right,male,5,19,常人,S.bmp,Bad,No,n,n,1,637
10,19,right,male,5,20,常人,T.bmp,Good,No,n,n,1,844
10,19,right,male,5,21,恶人,S.bmp,Bad,Yes,m,m,1,782
10,19,right,male,5,22,恶人,S.bmp,Bad,Yes,m,n,0,239
10,19,right,male,5,23,善人,S.bmp,Bad,No,n,m,0,337
10,19,right,male,5,24,恶人,T.bmp,Good,No,n,m,0,375
10,19,right,male,5,25,恶人,S.bmp,Bad,Yes,m,m,1,332
10,19,right,male,5,26,常人,S.bmp,Bad,No,n,n,1,424
10,19,right,male,5,27,恶人,S.bmp,Bad,Yes,m,n,0,479
10,19,right,male,5,28,常人,C.bmp,Normal,Yes,m,m,1,409
10,19,right,male,5,29,恶人,C.bmp,Normal,No,n,m,0,504
10,19,right,male,5,30,善人,T.bmp,Good,Yes,m,n,0,269
10,19,right,male,5,31,善人,T.bmp,Good,Yes,m,m,1,252
10,19,right,male,5,32,善人,S.bmp,Bad,No,n,m,0,46
10,19,right,male,5,33,常人,C.bmp,Normal,Yes,m,,0,0
10,19,right,male,5,34,恶人,T.bmp,Good,No,n,,0,0
10,19,right,male,5,35,常人,T.bmp,Good,No,n,,0,0
10,19,right,male,5,36,善人,C.bmp,Normal,No,n,,0,0
10,19,right,male,5,37,善人,T.bmp,Good,Yes,m,m,1,183
10,19,right,male,5,38,常人,T.bmp,Good,No,n,m,0,322
10,19,right,male,5,39,善人,C.bmp,Normal,No,n,m,0,266
10,19,right,male,5,40,恶人,S.bmp,Bad,Yes,m,n,0,180
10,19,right,male,5,41,常人,C.bmp,Normal,Yes,m,,0,0
10,19,right,male,5,42,善人,S.bmp,Bad,No,n,,0,0
10,19,right,male,5,43,常人,C.bmp,Normal,Yes,m,m,1,30
10,19,right,male,5,44,善人,T.bmp,Good,Yes,m,,0,0
10,19,right,male,5,45,恶人,C.bmp,Normal,No,n,m,0,369
10,19,right,male,5,46,恶人,S.bmp,Bad,Yes,m,n,0,395
10,19,right,male,5,47,恶人,T.bmp,Good,No,n,n,1,283
10,19,right,male,5,48,常人,S.bmp,Bad,No,n,m,0,467
10,19,right,male,5,49,恶人,T.bmp,Good,No,n,n,1,558
10,19,right,male,5,50,善人,T.bmp,Good,Yes,m,n,0,546
10,19,right,male,5,51,常人,C.bmp,Normal,Yes,m,m,1,645
10,19,right,male,5,52,常人,T.bmp,Good,No,n,m,0,106
10,19,right,male,5,53,恶人,S.bmp,Bad,Yes,m,m,1,313
10,19,right,male,5,54,恶人,S.bmp,Bad,Yes,m,m,1,549
10,19,right,male,5,55,善人,T.bmp,Good,Yes,m,n,0,708
10,19,right,male,5,56,恶人,C.bmp,Normal,No,n,n,1,988
10,19,right,male,5,57,善人,S.bmp,Bad,No,n,m,0,672
10,19,right,male,5,58,善人,C.bmp,Normal,No,n,n,1,731
10,19,right,male,5,59,常人,S.bmp,Bad,No,n,n,1,966
10,19,right,male,5,60,常人,C.bmp,Normal,Yes,m,m,1,798
10,19,right,male,6,1,恶人,C.bmp,Normal,No,n,m,0,483
10,19,right,male,6,2,善人,S.bmp,Bad,No,n,m,0,536
10,19,right,male,6,3,恶人,S.bmp,Bad,Yes,m,m,1,488
10,19,right,male,6,4,善人,T.bmp,Good,Yes,m,n,0,480
10,19,right,male,6,5,常人,S.bmp,Bad,No,n,m,0,634
10,19,right,male,6,6,善人,T.bmp,Good,Yes,m,m,1,537
10,19,right,male,6,7,常人,T.bmp,Good,No,n,m,0,483
10,19,right,male,6,8,常人,C.bmp,Normal,Yes,m,m,1,623
10,19,right,male,6,9,恶人,S.bmp,Bad,Yes,m,n,0,565
10,19,right,male,6,10,善人,C.bmp,Normal,No,n,m,0,109
10,19,right,male,6,11,恶人,T.bmp,Good,No,n,,0,0
10,19,right,male,6,12,常人,C.bmp,Normal,Yes,m,m,1,205
10,19,right,male,6,13,常人,T.bmp,Good,No,n,m,0,315
10,19,right,male,6,14,恶人,S.bmp,Bad,Yes,m,n,0,239
10,19,right,male,6,15,恶人,S.bmp,Bad,Yes,m,m,1,251
10,19,right,male,6,16,善人,T.bmp,Good,Yes,m,m,1,257
10,19,right,male,6,17,善人,T.bmp,Good,Yes,m,m,1,428
10,19,right,male,6,18,恶人,C.bmp,Normal,No,n,n,1,537
10,19,right,male,6,19,常人,C.bmp,Normal,Yes,m,m,1,637
10,19,right,male,6,20,恶人,T.bmp,Good,No,n,m,0,453
10,19,right,male,6,21,常人,C.bmp,Normal,Yes,m,n,0,352
10,19,right,male,6,22,善人,C.bmp,Normal,No,n,m,0,85
10,19,right,male,6,23,善人,S.bmp,Bad,No,n,n,1,232
10,19,right,male,6,24,常人,S.bmp,Bad,No,n,m,0,443
10,19,right,male,6,25,善人,T.bmp,Good,Yes,m,n,0,557
10,19,right,male,6,26,恶人,C.bmp,Normal,No,n,n,1,949
10,19,right,male,6,27,恶人,S.bmp,Bad,Yes,m,n,0,851
10,19,right,male,6,28,善人,T.bmp,Good,Yes,m,m,1,747
10,19,right,male,6,29,常人,S.bmp,Bad,No,n,n,1,764
10,19,right,male,6,30,常人,C.bmp,Normal,Yes,m,m,1,820
10,19,right,male,6,31,常人,C.bmp,Normal,Yes,m,m,1,857
10,19,right,male,6,32,善人,C.bmp,Normal,No,n,m,0,776
10,19,right,male,6,33,善人,S.bmp,Bad,No,n,n,1,396
10,19,right,male,6,34,恶人,T.bmp,Good,No,n,,0,0
10,19,right,male,6,35,恶人,S.bmp,Bad,Yes,m,n,0,309
10,19,right,male,6,36,常人,T.bmp,Good,No,n,m,0,195
10,19,right,male,6,37,善人,T.bmp,Good,Yes,m,n,0,27
10,19,right,male,6,38,常人,C.bmp,Normal,Yes,m,m,1,19
10,19,right,male,6,39,常人,S.bmp,Bad,No,n,m,0,195
10,19,right,male,6,40,恶人,C.bmp,Normal,No,n,m,0,293
10,19,right,male,6,41,善人,C.bmp,Normal,No,n,,0,0
10,19,right,male,6,42,常人,T.bmp,Good,No,n,,0,0
10,19,right,male,6,43,善人,T.bmp,Good,Yes,m,,0,0
10,19,right,male,6,44,恶人,T.bmp,Good,No,n,,0,0
10,19,right,male,6,45,恶人,S.bmp,Bad,Yes,m,,0,0
10,19,right,male,6,46,常人,C.bmp,Normal,Yes,m,,0,0
10,19,right,male,6,47,善人,S.bmp,Bad,No,n,m,0,219
10,19,right,male,6,48,恶人,S.bmp,Bad,Yes,m,m,1,269
10,19,right,male,6,49,善人,C.bmp,Normal,No,n,n,1,384
10,19,right,male,6,50,善人,S.bmp,Bad,No,n,m,0,471
10,19,right,male,6,51,常人,S.bmp,Bad,No,n,n,1,367
10,19,right,male,6,52,善人,T.bmp,Good,Yes,m,n,0,460
10,19,right,male,6,53,常人,C.bmp,Normal,Yes,m,m,1,303
10,19,right,male,6,54,恶人,S.bmp,Bad,Yes,m,m,1,271
10,19,right,male,6,55,常人,C.bmp,Normal,Yes,m,n,0,619
10,19,right,male,6,56,恶人,S.bmp,Bad,Yes,m,m,1,384
10,19,right,male,6,57,善人,T.bmp,Good,Yes,m,n,0,416
10,19,right,male,6,58,恶人,T.bmp,Good,No,n,n,1,923
10,19,right,male,6,59,常人,T.bmp,Good,No,n,m,0,691
10,19,right,male,6,60,恶人,C.bmp,Normal,No,n,m,0,773
11,21,right,female,,1,善人,S.bmp,Good,Yes,n,,0,0
11,21,right,female,,2,恶人,C.bmp,Bad,Yes,n,n,1,485
11,21,right,female,,3,善人,T.bmp,Normal,No,m,n,0,426
11,21,right,female,,4,常人,S.bmp,Good,No,m,n,0,276
11,21,right,female,,5,常人,T.bmp,Normal,Yes,n,m,0,572
11,21,right,female,,6,恶人,T.bmp,Normal,No,m,n,0,659
11,21,right,female,,7,善人,S.bmp,Good,Yes,n,n,1,541
11,21,right,female,,8,恶人,C.bmp,Bad,Yes,n,m,0,575
11,21,right,female,,9,常人,C.bmp,Bad,No,m,,0,0
11,21,right,female,,10,常人,T.bmp,Normal,Yes,n,m,0,737
11,21,right,female,,11,善人,C.bmp,Bad,No,m,m,1,929
11,21,right,female,,12,恶人,S.bmp,Good,No,m,,0,0
11,21,right,female,,13,恶人,S.bmp,Good,No,m,,0,0
11,21,right,female,,14,善人,C.bmp,Bad,No,m,,0,0
11,21,right,female,,15,常人,T.bmp,Normal,Yes,n,,0,0
11,21,right,female,,16,善人,T.bmp,Normal,No,m,,0,0
11,21,right,female,,17,常人,T.bmp,Normal,Yes,n,,0,0
11,21,right,female,,18,常人,S.bmp,Good,No,m,,0,0
11,21,right,female,,19,善人,S.bmp,Good,Yes,n,,0,0
11,21,right,female,,20,恶人,C.bmp,Bad,Yes,n,,0,0
11,21,right,female,,21,善人,S.bmp,Good,Yes,n,,0,0
11,21,right,female,,22,恶人,T.bmp,Normal,No,m,,0,0
11,21,right,female,,23,恶人,C.bmp,Bad,Yes,n,,0,0
11,21,right,female,,24,常人,C.bmp,Bad,No,m,,0,0
11,21,right,female,,25,常人,C.bmp,Bad,No,m,,0,0
11,21,right,female,,26,常人,T.bmp,Normal,Yes,n,,0,0
11,21,right,female,,27,善人,S.bmp,Good,Yes,n,,0,0
11,21,right,female,,28,常人,T.bmp,Normal,Yes,n,,0,0
11,21,right,female,,29,善人,C.bmp,Bad,No,m,,0,0
11,21,right,female,,30,恶人,C.bmp,Bad,Yes,n,,0,0
11,21,right,female,,31,恶人,C.bmp,Bad,Yes,n,,0,0
11,21,right,female,,32,恶人,S.bmp,Good,No,m,,0,0
11,21,right,female,,33,常人,S.bmp,Good,No,m,,0,0
11,21,right,female,,34,善人,T.bmp,Normal,No,m,,0,0
11,21,right,female,,35,善人,S.bmp,Good,Yes,n,,0,0
11,21,right,female,,36,恶人,T.bmp,Normal,No,m,,0,0
11,21,right,female,,37,常人,T.bmp,Normal,Yes,n,n,1,255
11,21,right,female,,38,善人,S.bmp,Good,Yes,n,,0,0
11,21,right,female,,39,常人,T.bmp,Normal,Yes,n,n,1,312
11,21,right,female,,40,恶人,C.bmp,Bad,Yes,n,m,0,522
11,21,right,female,,41,恶人,S.bmp,Good,No,m,m,1,893
11,21,right,female,,42,常人,C.bmp,Bad,No,m,m,1,950
11,21,right,female,,43,善人,T.bmp,Normal,No,m,m,1,884
11,21,right,female,,44,善人,C.bmp,Bad,No,m,m,1,955
11,21,right,female,,45,恶人,T.bmp,Normal,No,m,n,0,817
11,21,right,female,,46,善人,S.bmp,Good,Yes,n,n,1,935
11,21,right,female,,47,常人,S.bmp,Good,No,m,m,1,866
11,21,right,female,,48,恶人,C.bmp,Bad,Yes,n,m,0,866
11,21,right,female,1,1,恶人,C.bmp,Bad,Yes,n,m,0,934
11,21,right,female,1,2,善人,S.bmp,Good,Yes,n,n,1,818
11,21,right,female,1,3,常人,S.bmp,Good,No,m,n,0,951
11,21,right,female,1,4,恶人,T.bmp,Normal,No,m,,0,0
11,21,right,female,1,5,善人,T.bmp,Normal,No,m,m,1,1016
11,21,right,female,1,6,恶人,C.bmp,Bad,Yes,n,m,0,852
11,21,right,female,1,7,常人,T.bmp,Normal,Yes,n,m,0,874
11,21,right,female,1,8,常人,T.bmp,Normal,Yes,n,,0,0
11,21,right,female,1,9,恶人,S.bmp,Good,No,m,,0,0
11,21,right,female,1,10,善人,S.bmp,Good,Yes,n,n,1,798
11,21,right,female,1,11,善人,C.bmp,Bad,No,m,n,0,1068
11,21,right,female,1,12,常人,C.bmp,Bad,No,m,,0,0
11,21,right,female,1,13,常人,T.bmp,Normal,Yes,n,,0,0
11,21,right,female,1,14,善人,T.bmp,Normal,No,m,m,1,627
11,21,right,female,1,15,善人,C.bmp,Bad,No,m,m,1,894
11,21,right,female,1,16,善人,S.bmp,Good,Yes,n,n,1,719
11,21,right,female,1,17,常人,S.bmp,Good,No,m,n,0,1098
11,21,right,female,1,18,恶人,T.bmp,Normal,No,m,,0,0
11,21,right,female,1,19,恶人,C.bmp,Bad,Yes,n,m,0,898
11,21,right,female,1,20,善人,S.bmp,Good,Yes,n,,0,0
11,21,right,female,1,21,恶人,C.bmp,Bad,Yes,n,n,1,1060
11,21,right,female,1,22,恶人,S.bmp,Good,No,m,m,1,939
11,21,right,female,1,23,常人,C.bmp,Bad,No,m,m,1,936
11,21,right,female,1,24,常人,T.bmp,Normal,Yes,n,n,1,770
11,21,right,female,1,25,善人,T.bmp,Normal,No,m,,0,0
11,21,right,female,1,26,常人,C.bmp,Bad,No,m,m,1,924
11,21,right,female,1,27,恶人,C.bmp,Bad,Yes,n,m,0,875
11,21,right,female,1,28,恶人,S.bmp,Good,No,m,m,1,934
11,21,right,female,1,29,恶人,T.bmp,Normal,No,m,m,1,807
11,21,right,female,1,30,善人,C.bmp,Bad,No,m,,0,0
11,21,right,female,1,31,常人,S.bmp,Good,No,m,n,0,1072
11,21,right,female,1,32,恶人,C.bmp,Bad,Yes,n,,0,0
11,21,right,female,1,33,善人,S.bmp,Good,Yes,n,n,1,743
11,21,right,female,1,34,善人,S.bmp,Good,Yes,n,m,0,852
11,21,right,female,1,35,常人,T.bmp,Normal,Yes,n,m,0,834
11,21,right,female,1,36,常人,T.bmp,Normal,Yes,n,,0,0
11,21,right,female,1,37,常人,C.bmp,Bad,No,m,,0,0
11,21,right,female,1,38,恶人,C.bmp,Bad,Yes,n,,0,0
11,21,right,female,1,39,常人,T.bmp,Normal,Yes,n,m,0,563
11,21,right,female,1,40,善人,S.bmp,Good,Yes,n,n,1,591
11,21,right,female,1,41,恶人,S.bmp,Good,No,m,n,0,618
11,21,right,female,1,42,常人,S.bmp,Good,No,m,n,0,737
11,21,right,female,1,43,善人,S.bmp,Good,Yes,n,,0,0
11,21,right,female,1,44,恶人,C.bmp,Bad,Yes,n,,0,0
11,21,right,female,1,45,善人,C.bmp,Bad,No,m,n,0,915
11,21,right,female,1,46,善人,T.bmp,Normal,No,m,,0,0
11,21,right,female,1,47,常人,T.bmp,Normal,Yes,n,n,1,597
11,21,right,female,1,48,恶人,T.bmp,Normal,No,m,,0,0
11,21,right,female,1,49,常人,S.bmp,Good,No,m,n,0,688
11,21,right,female,1,50,常人,T.bmp,Normal,Yes,n,n,1,730
11,21,right,female,1,51,恶人,S.bmp,Good,No,m,,0,0
11,21,right,female,1,52,常人,T.bmp,Normal,Yes,n,,0,0
11,21,right,female,1,53,善人,C.bmp,Bad,No,m,n,0,785
11,21,right,female,1,54,恶人,C.bmp,Bad,Yes,n,m,0,618
11,21,right,female,1,55,善人,S.bmp,Good,Yes,n,,0,0
11,21,right,female,1,56,恶人,C.bmp,Bad,Yes,n,n,1,775
11,21,right,female,1,57,恶人,T.bmp,Normal,No,m,m,1,699
11,21,right,female,1,58,善人,T.bmp,Normal,No,m,n,0,1078
11,21,right,female,1,59,常人,C.bmp,Bad,No,m,n,0,911
11,21,right,female,1,60,善人,S.bmp,Good,Yes,n,,0,0
11,21,right,female,2,1,恶人,S.bmp,Good,No,m,n,0,934
11,21,right,female,2,2,常人,S.bmp,Good,No,m,n,0,692
11,21,right,female,2,3,常人,T.bmp,Normal,Yes,n,m,0,1098
11,21,right,female,2,4,善人,S.bmp,Good,Yes,n,n,1,836
11,21,right,female,2,5,善人,S.bmp,Good,Yes,n,n,1,810
11,21,right,female,2,6,恶人,T.bmp,Normal,No,m,m,1,970
11,21,right,female,2,7,善人,C.bmp,Bad,No,m,n,0,712
11,21,right,female,2,8,常人,T.bmp,Normal,Yes,n,m,0,948
11,21,right,female,2,9,恶人,C.bmp,Bad,Yes,n,n,1,1053
11,21,right,female,2,10,善人,T.bmp,Normal,No,m,m,1,836
11,21,right,female,2,11,恶人,C.bmp,Bad,Yes,n,m,0,774
11,21,right,female,2,12,常人,C.bmp,Bad,No,m,n,0,980
11,21,right,female,2,13,善人,C.bmp,Bad,No,m,m,1,1098
11,21,right,female,2,14,善人,S.bmp,Good,Yes,n,n,1,842
11,21,right,female,2,15,恶人,C.bmp,Bad,Yes,n,m,0,825
11,21,right,female,2,16,常人,T.bmp,Normal,Yes,n,,0,0
11,21,right,female,2,17,恶人,T.bmp,Normal,No,m,n,0,650
11,21,right,female,2,18,恶人,C.bmp,Bad,Yes,n,n,1,943
11,21,right,female,2,19,常人,S.bmp,Good,No,m,n,0,892
11,21,right,female,2,20,善人,T.bmp,Normal,No,m,,0,0
11,21,right,female,2,21,善人,S.bmp,Good,Yes,n,n,1,653
11,21,right,female,2,22,恶人,S.bmp,Good,No,m,m,1,848
11,21,right,female,2,23,常人,C.bmp,Bad,No,m,m,1,940
11,21,right,female,2,24,常人,T.bmp,Normal,Yes,n,m,0,929
11,21,right,female,2,25,恶人,S.bmp,Good,No,m,n,0,765
11,21,right,female,2,26,善人,T.bmp,Normal,No,m,m,1,914
11,21,right,female,2,27,恶人,C.bmp,Bad,Yes,n,n,1,971
11,21,right,female,2,28,恶人,C.bmp,Bad,Yes,n,m,0,830
11,21,right,female,2,29,善人,C.bmp,Bad,No,m,n,0,929
11,21,right,female,2,30,常人,C.bmp,Bad,No,m,,0,0
11,21,right,female,2,31,常人,T.bmp,Normal,Yes,n,m,0,923
11,21,right,female,2,32,常人,S.bmp,Good,No,m,,0,0
11,21,right,female,2,33,善人,S.bmp,Good,Yes,n,n,1,676
11,21,right,female,2,34,善人,S.bmp,Good,Yes,n,n,1,569
11,21,right,female,2,35,恶人,T.bmp,Normal,No,m,m,1,763
11,21,right,female,2,36,常人,T.bmp,Normal,Yes,n,n,1,918
11,21,right,female,2,37,常人,S.bmp,Good,No,m,n,0,868
11,21,right,female,2,38,恶人,S.bmp,Good,No,m,m,1,958
11,21,right,female,2,39,恶人,C.bmp,Bad,Yes,n,n,1,848
11,21,right,female,2,40,恶人,T.bmp,Normal,No,m,m,1,802
11,21,right,female,2,41,善人,S.bmp,Good,Yes,n,n,1,893
11,21,right,female,2,42,常人,C.bmp,Bad,No,m,,0,0
11,21,right,female,2,43,恶人,C.bmp,Bad,Yes,n,,0,0
11,21,right,female,2,44,善人,T.bmp,Normal,No,m,m,1,890
11,21,right,female,2,45,善人,S.bmp,Good,Yes,n,n,1,712
11,21,right,female,2,46,常人,T.bmp,Normal,Yes,n,,0,0
11,21,right,female,2,47,善人,C.bmp,Bad,No,m,m,1,922
11,21,right,female,2,48,常人,T.bmp,Normal,Yes,n,n,1,644
11,21,right,female,2,49,善人,S.bmp,Good,Yes,n,n,1,703
11,21,right,female,2,50,恶人,C.bmp,Bad,Yes,n,m,0,781
11,21,right,female,2,51,恶人,T.bmp,Normal,No,m,n,0,779
11,21,right,female,2,52,常人,T.bmp,Normal,Yes,n,n,1,903
11,21,right,female,2,53,恶人,C.bmp,Bad,Yes,n,,0,0
11,21,right,female,2,54,常人,T.bmp,Normal,Yes,n,,0,0
11,21,right,female,2,55,善人,T.bmp,Normal,No,m,n,0,610
11,21,right,female,2,56,常人,S.bmp,Good,No,m,n,0,659
11,21,right,female,2,57,善人,S.bmp,Good,Yes,n,,0,0
11,21,right,female,2,58,善人,C.bmp,Bad,No,m,n,0,644
11,21,right,female,2,59,恶人,S.bmp,Good,No,m,,0,0
11,21,right,female,2,60,常人,C.bmp,Bad,No,m,,0,0
11,21,right,female,3,1,恶人,S.bmp,Good,No,m,m,1,919
11,21,right,female,3,2,常人,C.bmp,Bad,No,m,m,1,855
11,21,right,female,3,3,恶人,C.bmp,Bad,Yes,n,n,1,844
11,21,right,female,3,4,常人,T.bmp,Normal,Yes,n,m,0,745
11,21,right,female,3,5,恶人,C.bmp,Bad,Yes,n,m,0,816
11,21,right,female,3,6,善人,S.bmp,Good,Yes,n,n,1,782
11,21,right,female,3,7,常人,S.bmp,Good,No,m,m,1,763
11,21,right,female,3,8,善人,C.bmp,Bad,No,m,m,1,822
11,21,right,female,3,9,常人,T.bmp,Normal,Yes,n,n,1,751
11,21,right,female,3,10,善人,T.bmp,Normal,No,m,,0,0
11,21,right,female,3,11,善人,S.bmp,Good,Yes,n,,0,0
11,21,right,female,3,12,恶人,T.bmp,Normal,No,m,n,0,584
11,21,right,female,3,13,常人,S.bmp,Good,No,m,n,0,662
11,21,right,female,3,14,常人,T.bmp,Normal,Yes,n,,0,0
11,21,right,female,3,15,善人,C.bmp,Bad,No,m,m,1,918
11,21,right,female,3,16,恶人,T.bmp,Normal,No,m,n,0,775
11,21,right,female,3,17,恶人,C.bmp,Bad,Yes,n,m,0,863
11,21,right,female,3,18,恶人,C.bmp,Bad,Yes,n,,0,0
11,21,right,female,3,19,善人,S.bmp,Good,Yes,n,n,1,606
11,21,right,female,3,20,善人,T.bmp,Normal,No,m,n,0,651
11,21,right,female,3,21,常人,T.bmp,Normal,Yes,n,,0,0
11,21,right,female,3,22,常人,C.bmp,Bad,No,m,m,1,665
11,21,right,female,3,23,恶人,S.bmp,Good,No,m,,0,0
11,21,right,female,3,24,善人,S.bmp,Good,Yes,n,,0,0
11,21,right,female,3,25,善人,S.bmp,Good,Yes,n,n,1,590
11,21,right,female,3,26,常人,C.bmp,Bad,No,m,m,1,639
11,21,right,female,3,27,恶人,C.bmp,Bad,Yes,n,n,1,596
11,21,right,female,3,28,恶人,C.bmp,Bad,Yes,n,n,1,658
11,21,right,female,3,29,常人,T.bmp,Normal,Yes,n,m,0,810
11,21,right,female,3,30,常人,T.bmp,Normal,Yes,n,,0,0
11,21,right,female,3,31,恶人,S.bmp,Good,No,m,n,0,622
11,21,right,female,3,32,恶人,T.bmp,Normal,No,m,n,0,996
11,21,right,female,3,33,善人,C.bmp,Bad,No,m,n,0,718
11,21,right,female,3,34,善人,T.bmp,Normal,No,m,m,1,999
11,21,right,female,3,35,常人,S.bmp,Good,No,m,n,0,1003
11,21,right,female,3,36,善人,S.bmp,Good,Yes,n,,0,0
11,21,right,female,3,37,善人,S.bmp,Good,Yes,n,n,1,418
11,21,right,female,3,38,善人,T.bmp,Normal,No,m,m,1,651
11,21,right,female,3,39,常人,T.bmp,Normal,Yes,n,m,0,1054
11,21,right,female,3,40,恶人,C.bmp,Bad,Yes,n,n,1,694
11,21,right,female,3,41,常人,T.bmp,Normal,Yes,n,m,0,652
11,21,right,female,3,42,善人,S.bmp,Good,Yes,n,n,1,576
11,21,right,female,3,43,常人,C.bmp,Bad,No,m,m,1,759
11,21,right,female,3,44,善人,C.bmp,Bad,No,m,m,1,742
11,21,right,female,3,45,恶人,S.bmp,Good,No,m,n,0,867
11,21,right,female,3,46,恶人,C.bmp,Bad,Yes,n,n,1,728
11,21,right,female,3,47,恶人,T.bmp,Normal,No,m,m,1,934
11,21,right,female,3,48,常人,S.bmp,Good,No,m,n,0,790
11,21,right,female,3,49,常人,T.bmp,Normal,Yes,n,n,1,674
11,21,right,female,3,50,善人,T.bmp,Normal,No,m,m,1,774
11,21,right,female,3,51,常人,C.bmp,Bad,No,m,m,1,956
11,21,right,female,3,52,恶人,T.bmp,Normal,No,m,m,1,1024
11,21,right,female,3,53,常人,S.bmp,Good,No,m,n,0,891
11,21,right,female,3,54,善人,C.bmp,Bad,No,m,n,0,894
11,21,right,female,3,55,恶人,C.bmp,Bad,Yes,n,n,1,1005
11,21,right,female,3,56,恶人,S.bmp,Good,No,m,m,1,1092
11,21,right,female,3,57,常人,T.bmp,Normal,Yes,n,n,1,982
11,21,right,female,3,58,善人,S.bmp,Good,Yes,n,,0,0
11,21,right,female,3,59,善人,S.bmp,Good,Yes,n,,0,0
11,21,right,female,3,60,恶人,C.bmp,Bad,Yes,n,n,1,1008
11,21,right,female,4,1,常人,T.bmp,Normal,Yes,n,n,1,820
11,21,right,female,4,2,常人,T.bmp,Normal,Yes,n,n,1,694
11,21,right,female,4,3,善人,C.bmp,Bad,No,m,m,1,795
11,21,right,female,4,4,恶人,C.bmp,Bad,Yes,n,m,0,786
11,21,right,female,4,5,常人,C.bmp,Bad,No,m,m,1,841
11,21,right,female,4,6,恶人,C.bmp,Bad,Yes,n,n,1,647
11,21,right,female,4,7,恶人,S.bmp,Good,No,m,n,0,692
11,21,right,female,4,8,善人,S.bmp,Good,Yes,n,n,1,680
11,21,right,female,4,9,善人,T.bmp,Normal,No,m,m,1,784
11,21,right,female,4,10,善人,S.bmp,Good,Yes,n,m,0,1081
11,21,right,female,4,11,恶人,T.bmp,Normal,No,m,m,1,884
11,21,right,female,4,12,常人,S.bmp,Good,No,m,m,1,1096
11,21,right,female,4,13,恶人,T.bmp,Normal,No,m,m,1,882
11,21,right,female,4,14,善人,T.bmp,Normal,No,m,m,1,918
11,21,right,female,4,15,善人,S.bmp,Good,Yes,n,n,1,824
11,21,right,female,4,16,恶人,C.bmp,Bad,Yes,n,n,1,722
11,21,right,female,4,17,常人,C.bmp,Bad,No,m,m,1,857
11,21,right,female,4,18,常人,T.bmp,Normal,Yes,n,m,0,858
11,21,right,female,4,19,善人,C.bmp,Bad,No,m,m,1,894
11,21,right,female,4,20,善人,S.bmp,Good,Yes,n,n,1,673
11,21,right,female,4,21,常人,T.bmp,Normal,Yes,n,m,0,811
11,21,right,female,4,22,常人,S.bmp,Good,No,m,m,1,760
11,21,right,female,4,23,恶人,S.bmp,Good,No,m,m,1,1019
11,21,right,female,4,24,恶人,C.bmp,Bad,Yes,n,n,1,677
11,21,right,female,4,25,善人,S.bmp,Good,Yes,n,n,1,1068
11,21,right,female,4,26,善人,T.bmp,Normal,No,m,m,1,922
11,21,right,female,4,27,恶人,S.bmp,Good,No,m,,0,0
11,21,right,female,4,28,常人,T.bmp,Normal,Yes,n,n,1,832
11,21,right,female,4,29,恶人,C.bmp,Bad,Yes,n,n,1,875
11,21,right,female,4,30,常人,T.bmp,Normal,Yes,n,m,0,630
11,21,right,female,4,31,善人,C.bmp,Bad,No,m,m,1,842
11,21,right,female,4,32,善人,S.bmp,Good,Yes,n,n,1,586
11,21,right,female,4,33,恶人,T.bmp,Normal,No,m,n,0,839
11,21,right,female,4,34,常人,S.bmp,Good,No,m,n,0,897
11,21,right,female,4,35,常人,C.bmp,Bad,No,m,m,1,857
11,21,right,female,4,36,恶人,C.bmp,Bad,Yes,n,m,0,908
11,21,right,female,4,37,常人,S.bmp,Good,No,m,n,0,933
11,21,right,female,4,38,恶人,S.bmp,Good,No,m,,0,0
11,21,right,female,4,39,恶人,C.bmp,Bad,Yes,n,m,0,908
11,21,right,female,4,40,善人,S.bmp,Good,Yes,n,,0,0
11,21,right,female,4,41,恶人,T.bmp,Normal,No,m,n,0,747
11,21,right,female,4,42,常人,T.bmp,Normal,Yes,n,n,1,947
11,21,right,female,4,43,善人,S.bmp,Good,Yes,n,n,1,727
11,21,right,female,4,44,善人,T.bmp,Normal,No,m,m,1,895
11,21,right,female,4,45,恶人,C.bmp,Bad,Yes,n,n,1,712
11,21,right,female,4,46,常人,C.bmp,Bad,No,m,m,1,1047
11,21,right,female,4,47,善人,C.bmp,Bad,No,m,m,1,811
11,21,right,female,4,48,常人,T.bmp,Normal,Yes,n,m,0,828
11,21,right,female,4,49,善人,S.bmp,Good,Yes,n,n,1,778
11,21,right,female,4,50,恶人,C.bmp,Bad,Yes,n,n,1,617
11,21,right,female,4,51,常人,S.bmp,Good,No,m,m,1,865
11,21,right,female,4,52,恶人,S.bmp,Good,No,m,n,0,1028
11,21,right,female,4,53,常人,C.bmp,Bad,No,m,m,1,852
11,21,right,female,4,54,恶人,T.bmp,Normal,No,m,m,1,984
11,21,right,female,4,55,善人,S.bmp,Good,Yes,n,n,1,689
11,21,right,female,4,56,常人,T.bmp,Normal,Yes,n,m,0,945
11,21,right,female,4,57,善人,T.bmp,Normal,No,m,,0,0
11,21,right,female,4,58,善人,C.bmp,Bad,No,m,n,0,779
11,21,right,female,4,59,恶人,C.bmp,Bad,Yes,n,n,1,592
11,21,right,female,4,60,常人,T.bmp,Normal,Yes,n,m,0,898
11,21,right,female,5,1,善人,C.bmp,Bad,No,m,m,1,864
11,21,right,female,5,2,恶人,T.bmp,Normal,No,m,n,0,830
11,21,right,female,5,3,善人,T.bmp,Normal,No,m,n,0,773
11,21,right,female,5,4,善人,S.bmp,Good,Yes,n,m,0,813
11,21,right,female,5,5,常人,C.bmp,Bad,No,m,,0,0
11,21,right,female,5,6,常人,T.bmp,Normal,Yes,n,,0,0
11,21,right,female,5,7,常人,T.bmp,Normal,Yes,n,n,1,591
11,21,right,female,5,8,恶人,C.bmp,Bad,Yes,n,n,1,916
11,21,right,female,5,9,善人,S.bmp,Good,Yes,n,n,1,668
11,21,right,female,5,10,恶人,S.bmp,Good,No,m,n,0,709
11,21,right,female,5,11,常人,S.bmp,Good,No,m,n,0,757
11,21,right,female,5,12,恶人,C.bmp,Bad,Yes,n,n,1,826
11,21,right,female,5,13,常人,T.bmp,Normal,Yes,n,m,0,801
11,21,right,female,5,14,善人,S.bmp,Good,Yes,n,n,1,826
11,21,right,female,5,15,恶人,T.bmp,Normal,No,m,,0,0
11,21,right,female,5,16,常人,C.bmp,Bad,No,m,,0,0
11,21,right,female,5,17,善人,S.bmp,Good,Yes,n,n,1,559
11,21,right,female,5,18,恶人,C.bmp,Bad,Yes,n,n,1,732
11,21,right,female,5,19,常人,T.bmp,Normal,Yes,n,m,0,998
11,21,right,female,5,20,恶人,C.bmp,Bad,Yes,n,n,1,877
11,21,right,female,5,21,善人,C.bmp,Bad,No,m,m,1,699
11,21,right,female,5,22,善人,T.bmp,Normal,No,m,m,1,1047
11,21,right,female,5,23,恶人,S.bmp,Good,No,m,n,0,704
11,21,right,female,5,24,常人,S.bmp,Good,No,m,n,0,752
11,21,right,female,5,25,恶人,S.bmp,Good,No,m,m,1,701
11,21,right,female,5,26,常人,T.bmp,Normal,Yes,n,m,0,760
11,21,right,female,5,27,常人,C.bmp,Bad,No,m,,0,0
11,21,right,female,5,28,善人,T.bmp,Normal,No,m,m,1,806
11,21,right,female,5,29,善人,S.bmp,Good,Yes,n,n,1,747
11,21,right,female,5,30,善人,C.bmp,Bad,No,m,m,1,623
11,21,right,female,5,31,恶人,C.bmp,Bad,Yes,n,n,1,843
11,21,right,female,5,32,恶人,T.bmp,Normal,No,m,,0,0
11,21,right,female,5,33,恶人,C.bmp,Bad,Yes,n,,0,0
11,21,right,female,5,34,常人,T.bmp,Normal,Yes,n,n,1,849
11,21,right,female,5,35,常人,S.bmp,Good,No,m,,0,0
11,21,right,female,5,36,善人,S.bmp,Good,Yes,n,,0,0
11,21,right,female,5,37,常人,T.bmp,Normal,Yes,n,m,0,673
11,21,right,female,5,38,常人,C.bmp,Bad,No,m,n,0,602
11,21,right,female,5,39,善人,S.bmp,Good,Yes,n,n,1,453
11,21,right,female,5,40,恶人,C.bmp,Bad,Yes,n,n,1,717
11,21,right,female,5,41,善人,C.bmp,Bad,No,m,m,1,651
11,21,right,female,5,42,恶人,T.bmp,Normal,No,m,n,0,659
11,21,right,female,5,43,恶人,C.bmp,Bad,Yes,n,n,1,673
11,21,right,female,5,44,善人,T.bmp,Normal,No,m,,0,0
11,21,right,female,5,45,常人,S.bmp,Good,No,m,,0,0
11,21,right,female,5,46,恶人,S.bmp,Good,No,m,n,0,576
11,21,right,female,5,47,善人,S.bmp,Good,Yes,n,m,0,1006
11,21,right,female,5,48,常人,T.bmp,Normal,Yes,n,,0,0
11,21,right,female,5,49,善人,T.bmp,Normal,No,m,m,1,266
11,21,right,female,5,50,善人,S.bmp,Good,Yes,n,n,1,787
11,21,right,female,5,51,常人,T.bmp,Normal,Yes,n,m,0,684
11,21,right,female,5,52,恶人,C.bmp,Bad,Yes,n,n,1,1036
11,21,right,female,5,53,常人,S.bmp,Good,No,m,m,1,949
11,21,right,female,5,54,恶人,C.bmp,Bad,Yes,n,n,1,968
11,21,right,female,5,55,善人,C.bmp,Bad,No,m,n,0,903
11,21,right,female,5,56,恶人,S.bmp,Good,No,m,n,0,668
11,21,right,female,5,57,常人,T.bmp,Normal,Yes,n,,0,0
11,21,right,female,5,58,恶人,T.bmp,Normal,No,m,m,1,662
11,21,right,female,5,59,善人,S.bmp,Good,Yes,n,n,1,710
11,21,right,female,5,60,常人,C.bmp,Bad,No,m,m,1,989
11,21,right,female,6,1,善人,S.bmp,Good,Yes,n,n,1,853
11,21,right,female,6,2,常人,S.bmp,Good,No,m,m,1,687
11,21,right,female,6,3,善人,C.bmp,Bad,No,m,n,0,794
11,21,right,female,6,4,常人,T.bmp,Normal,Yes,n,n,1,850
11,21,right,female,6,5,常人,C.bmp,Bad,No,m,m,1,813
11,21,right,female,6,6,恶人,C.bmp,Bad,Yes,n,n,1,859
11,21,right,female,6,7,恶人,S.bmp,Good,No,m,m,1,775
11,21,right,female,6,8,恶人,T.bmp,Normal,No,m,m,1,842
11,21,right,female,6,9,常人,T.bmp,Normal,Yes,n,n,1,907
11,21,right,female,6,10,善人,T.bmp,Normal,No,m,m,1,893
11,21,right,female,6,11,恶人,C.bmp,Bad,Yes,n,n,1,786
11,21,right,female,6,12,善人,S.bmp,Good,Yes,n,n,1,682
11,21,right,female,6,13,善人,C.bmp,Bad,No,m,m,1,865
11,21,right,female,6,14,善人,S.bmp,Good,Yes,n,n,1,727
11,21,right,female,6,15,常人,T.bmp,Normal,Yes,n,m,0,691
11,21,right,female,6,16,善人,S.bmp,Good,Yes,n,n,1,871
11,21,right,female,6,17,恶人,S.bmp,Good,No,m,n,0,1082
11,21,right,female,6,18,恶人,T.bmp,Normal,No,m,m,1,1051
11,21,right,female,6,19,常人,S.bmp,Good,No,m,n,0,894
11,21,right,female,6,20,恶人,C.bmp,Bad,Yes,n,n,1,683
11,21,right,female,6,21,常人,C.bmp,Bad,No,m,,0,0
11,21,right,female,6,22,常人,T.bmp,Normal,Yes,n,,0,0
11,21,right,female,6,23,善人,T.bmp,Normal,No,m,m,1,860
11,21,right,female,6,24,恶人,C.bmp,Bad,Yes,n,n,1,659
11,21,right,female,6,25,善人,S.bmp,Good,Yes,n,n,1,760
11,21,right,female,6,26,恶人,S.bmp,Good,No,m,m,1,932
11,21,right,female,6,27,善人,S.bmp,Good,Yes,n,n,1,799
11,21,right,female,6,28,常人,C.bmp,Bad,No,m,m,1,819
11,21,right,female,6,29,常人,S.bmp,Good,No,m,m,1,724
11,21,right,female,6,30,恶人,C.bmp,Bad,Yes,n,n,1,783
11,21,right,female,6,31,善人,T.bmp,Normal,No,m,m,1,806
11,21,right,female,6,32,常人,T.bmp,Normal,Yes,n,m,0,967
11,21,right,female,6,33,常人,T.bmp,Normal,Yes,n,n,1,817
11,21,right,female,6,34,恶人,C.bmp,Bad,Yes,n,n,1,728
11,21,right,female,6,35,善人,C.bmp,Bad,No,m,m,1,849
11,21,right,female,6,36,恶人,T.bmp,Normal,No,m,m,1,764
11,21,right,female,6,37,善人,C.bmp,Bad,No,m,m,1,908
11,21,right,female,6,38,恶人,C.bmp,Bad,Yes,n,,0,0
11,21,right,female,6,39,善人,S.bmp,Good,Yes,n,,0,0
11,21,right,female,6,40,常人,T.bmp,Normal,Yes,n,m,0,754
11,21,right,female,6,41,恶人,S.bmp,Good,No,m,m,1,980
11,21,right,female,6,42,常人,C.bmp,Bad,No,m,n,0,1066
11,21,right,female,6,43,恶人,T.bmp,Normal,No,m,m,1,938
11,21,right,female,6,44,善人,S.bmp,Good,Yes,n,n,1,653
11,21,right,female,6,45,常人,S.bmp,Good,No,m,m,1,822
11,21,right,female,6,46,常人,T.bmp,Normal,Yes,n,m,0,881
11,21,right,female,6,47,善人,T.bmp,Normal,No,m,m,1,957
11,21,right,female,6,48,恶人,C.bmp,Bad,Yes,n,n,1,789
11,21,right,female,6,49,善人,S.bmp,Good,Yes,n,n,1,628
11,21,right,female,6,50,善人,C.bmp,Bad,No,m,m,1,828
11,21,right,female,6,51,常人,T.bmp,Normal,Yes,n,n,1,715
11,21,right,female,6,52,恶人,S.bmp,Good,No,m,n,0,735
11,21,right,female,6,53,常人,S.bmp,Good,No,m,,0,0
11,21,right,female,6,54,善人,T.bmp,Normal,No,m,n,0,710
11,21,right,female,6,55,恶人,T.bmp,Normal,No,m,m,1,888
11,21,right,female,6,56,常人,T.bmp,Normal,Yes,n,m,0,716
11,21,right,female,6,57,恶人,C.bmp,Bad,Yes,n,,0,0
11,21,right,female,6,58,善人,S.bmp,Good,Yes,n,n,1,559
11,21,right,female,6,59,恶人,C.bmp,Bad,Yes,n,n,1,669
11,21,right,female,6,60,常人,C.bmp,Bad,No,m,,0,0
12,19,right,male,,1,常人,S.bmp,Normal,Yes,m,,0,0
12,19,right,male,,2,善人,T.bmp,Bad,No,n,,0,0
12,19,right,male,,3,善人,S.bmp,Normal,No,n,,0,0
12,19,right,male,,4,常人,S.bmp,Normal,Yes,m,,0,0
12,19,right,male,,5,恶人,S.bmp,Normal,No,n,,0,0
12,19,right,male,,6,善人,C.bmp,Good,Yes,m,,0,0
12,19,right,male,,7,常人,C.bmp,Good,No,n,,0,0
12,19,right,male,,8,恶人,T.bmp,Bad,Yes,m,,0,0
12,19,right,male,,9,常人,T.bmp,Bad,No,n,,0,0
12,19,right,male,,10,恶人,C.bmp,Good,No,n,,0,0
12,19,right,male,,11,恶人,T.bmp,Bad,Yes,m,,0,0
12,19,right,male,,12,善人,C.bmp,Good,Yes,m,,0,0
12,19,right,male,,13,恶人,T.bmp,Bad,Yes,m,,0,0
12,19,right,male,,14,恶人,T.bmp,Bad,Yes,m,,0,0
12,19,right,male,,15,常人,T.bmp,Bad,No,n,,0,0
12,19,right,male,,16,恶人,C.bmp,Good,No,n,,0,0
12,19,right,male,,17,常人,C.bmp,Good,No,n,,0,0
12,19,right,male,,18,常人,S.bmp,Normal,Yes,m,,0,0
12,19,right,male,,19,常人,S.bmp,Normal,Yes,m,,0,0
12,19,right,male,,20,善人,S.bmp,Normal,No,n,,0,0
12,19,right,male,,21,善人,T.bmp,Bad,No,n,,0,0
12,19,right,male,,22,恶人,S.bmp,Normal,No,n,,0,0
12,19,right,male,,23,善人,C.bmp,Good,Yes,m,,0,0
12,19,right,male,,24,善人,C.bmp,Good,Yes,m,,0,0
12,19,right,male,,25,善人,S.bmp,Normal,No,n,m,0,318
12,19,right,male,,26,常人,C.bmp,Good,No,n,,0,0
12,19,right,male,,27,恶人,C.bmp,Good,No,n,,0,0
12,19,right,male,,28,恶人,T.bmp,Bad,Yes,m,,0,0
12,19,right,male,,29,善人,C.bmp,Good,Yes,m,m,1,429
12,19,right,male,,30,善人,C.bmp,Good,Yes,m,,0,0
12,19,right,male,,31,恶人,T.bmp,Bad,Yes,m,,0,0
12,19,right,male,,32,常人,T.bmp,Bad,No,n,,0,0
12,19,right,male,,33,常人,S.bmp,Normal,Yes,m,,0,0
12,19,right,male,,34,善人,T.bmp,Bad,No,n,,0,0
12,19,right,male,,35,恶人,S.bmp,Normal,No,n,,0,0
12,19,right,male,,36,常人,S.bmp,Normal,Yes,m,,0,0
12,19,right,male,,37,善人,C.bmp,Good,Yes,m,m,1,455
12,19,right,male,,38,恶人,C.bmp,Good,No,n,n,1,643
12,19,right,male,,39,常人,S.bmp,Normal,Yes,m,m,1,577
12,19,right,male,,40,善人,T.bmp,Bad,No,n,n,1,374
12,19,right,male,,41,恶人,T.bmp,Bad,Yes,m,m,1,562
12,19,right,male,,42,常人,T.bmp,Bad,No,n,m,0,536
12,19,right,male,,43,善人,C.bmp,Good,Yes,m,m,1,469
12,19,right,male,,44,常人,S.bmp,Normal,Yes,m,n,0,321
12,19,right,male,,45,常人,C.bmp,Good,No,n,,0,0
12,19,right,male,,46,恶人,T.bmp,Bad,Yes,m,,0,0
12,19,right,male,,47,恶人,S.bmp,Normal,No,n,,0,0
12,19,right,male,,48,善人,S.bmp,Normal,No,n,,0,0
12,19,right,male,1,1,善人,C.bmp,Good,Yes,m,m,1,354
12,19,right,male,1,2,常人,C.bmp,Good,No,n,m,0,423
12,19,right,male,1,3,恶人,C.bmp,Good,No,n,n,1,470
12,19,right,male,1,4,常人,T.bmp,Bad,No,n,m,0,332
12,19,right,male,1,5,善人,C.bmp,Good,Yes,m,m,1,377
12,19,right,male,1,6,常人,S.bmp,Normal,Yes,m,m,1,438
12,19,right,male,1,7,善人,T.bmp,Bad,No,n,m,0,382
12,19,right,male,1,8,恶人,T.bmp,Bad,Yes,m,m,1,376
12,19,right,male,1,9,常人,S.bmp,Normal,Yes,m,n,0,297
12,19,right,male,1,10,恶人,S.bmp,Normal,No,n,m,0,628
12,19,right,male,1,11,恶人,T.bmp,Bad,Yes,m,m,1,420
12,19,right,male,1,12,善人,S.bmp,Normal,No,n,n,1,764
12,19,right,male,1,13,恶人,S.bmp,Normal,No,n,,0,0
12,19,right,male,1,14,常人,S.bmp,Normal,Yes,m,m,1,588
12,19,right,male,1,15,恶人,T.bmp,Bad,Yes,m,n,0,608
12,19,right,male,1,16,善人,C.bmp,Good,Yes,m,m,1,428
12,19,right,male,1,17,善人,S.bmp,Normal,No,n,n,1,834
12,19,right,male,1,18,恶人,C.bmp,Good,No,n,m,0,631
12,19,right,male,1,19,常人,T.bmp,Bad,No,n,n,1,810
12,19,right,male,1,20,恶人,T.bmp,Bad,Yes,m,n,0,580
12,19,right,male,1,21,常人,S.bmp,Normal,Yes,m,n,0,406
12,19,right,male,1,22,常人,C.bmp,Good,No,n,,0,0
12,19,right,male,1,23,善人,C.bmp,Good,Yes,m,m,1,553
12,19,right,male,1,24,善人,T.bmp,Bad,No,n,n,1,609
12,19,right,male,1,25,常人,S.bmp,Normal,Yes,m,n,0,850
12,19,right,male,1,26,恶人,C.bmp,Good,No,n,n,1,894
12,19,right,male,1,27,恶人,S.bmp,Normal,No,n,m,0,414
12,19,right,male,1,28,常人,S.bmp,Normal,Yes,m,n,0,279
12,19,right,male,1,29,善人,C.bmp,Good,Yes,m,n,0,323
12,19,right,male,1,30,恶人,T.bmp,Bad,Yes,m,m,1,268
12,19,right,male,1,31,恶人,T.bmp,Bad,Yes,m,m,1,304
12,19,right,male,1,32,善人,S.bmp,Normal,No,n,,0,0
12,19,right,male,1,33,常人,C.bmp,Good,No,n,n,1,561
12,19,right,male,1,34,常人,T.bmp,Bad,No,n,m,0,796
12,19,right,male,1,35,善人,C.bmp,Good,Yes,m,n,0,378
12,19,right,male,1,36,善人,T.bmp,Bad,No,n,n,1,226
12,19,right,male,1,37,恶人,T.bmp,Bad,Yes,m,m,1,243
12,19,right,male,1,38,善人,C.bmp,Good,Yes,m,n,0,315
12,19,right,male,1,39,常人,S.bmp,Normal,Yes,m,m,1,309
12,19,right,male,1,40,恶人,C.bmp,Good,No,n,m,0,293
12,19,right,male,1,41,恶人,T.bmp,Bad,Yes,m,m,1,201
12,19,right,male,1,42,恶人,S.bmp,Normal,No,n,n,1,220
12,19,right,male,1,43,常人,C.bmp,Good,No,n,m,0,242
12,19,right,male,1,44,善人,S.bmp,Normal,No,n,n,1,177
12,19,right,male,1,45,善人,T.bmp,Bad,No,n,n,1,245
12,19,right,male,1,46,常人,S.bmp,Normal,Yes,m,m,1,149
12,19,right,male,1,47,善人,C.bmp,Good,Yes,m,n,0,222
12,19,right,male,1,48,常人,T.bmp,Bad,No,n,n,1,258
12,19,right,male,1,49,善人,S.bmp,Normal,No,n,m,0,104
12,19,right,male,1,50,常人,C.bmp,Good,No,n,m,0,144
12,19,right,male,1,51,善人,C.bmp,Good,Yes,m,m,1,211
12,19,right,male,1,52,常人,S.bmp,Normal,Yes,m,n,0,272
12,19,right,male,1,53,恶人,T.bmp,Bad,Yes,m,n,0,364
12,19,right,male,1,54,恶人,T.bmp,Bad,Yes,m,m,1,434
12,19,right,male,1,55,善人,T.bmp,Bad,No,n,m,0,306
12,19,right,male,1,56,恶人,C.bmp,Good,No,n,n,1,235
12,19,right,male,1,57,常人,T.bmp,Bad,No,n,n,1,252
12,19,right,male,1,58,常人,S.bmp,Normal,Yes,m,m,1,204
12,19,right,male,1,59,恶人,S.bmp,Normal,No,n,n,1,282
12,19,right,male,1,60,善人,C.bmp,Good,Yes,m,m,1,258
12,19,right,male,2,1,常人,S.bmp,Normal,Yes,m,m,1,440
12,19,right,male,2,2,恶人,T.bmp,Bad,Yes,m,n,0,344
12,19,right,male,2,3,善人,C.bmp,Good,Yes,m,m,1,166
12,19,right,male,2,4,常人,S.bmp,Normal,Yes,m,m,1,281
12,19,right,male,2,5,恶人,S.bmp,Normal,No,n,m,0,285
12,19,right,male,2,6,善人,C.bmp,Good,Yes,m,m,1,649
12,19,right,male,2,7,恶人,C.bmp,Good,No,n,n,1,419
12,19,right,male,2,8,善人,S.bmp,Normal,No,n,m,0,286
12,19,right,male,2,9,常人,C.bmp,Good,No,n,m,0,227
12,19,right,male,2,10,常人,T.bmp,Bad,No,n,m,0,247
12,19,right,male,2,11,恶人,T.bmp,Bad,Yes,m,m,1,398
12,19,right,male,2,12,善人,T.bmp,Bad,No,n,n,1,266
12,19,right,male,2,13,恶人,S.bmp,Normal,No,n,m,0,257
12,19,right,male,2,14,常人,S.bmp,Normal,Yes,m,m,1,243
12,19,right,male,2,15,善人,C.bmp,Good,Yes,m,n,0,331
12,19,right,male,2,16,常人,C.bmp,Good,No,n,m,0,229
12,19,right,male,2,17,善人,S.bmp,Normal,No,n,m,0,299
12,19,right,male,2,18,恶人,T.bmp,Bad,Yes,m,n,0,374
12,19,right,male,2,19,常人,T.bmp,Bad,No,n,m,0,858
12,19,right,male,2,20,恶人,C.bmp,Good,No,n,m,0,371
12,19,right,male,2,21,善人,T.bmp,Bad,No,n,m,0,441
12,19,right,male,2,22,善人,C.bmp,Good,Yes,m,n,0,297
12,19,right,male,2,23,常人,S.bmp,Normal,Yes,m,m,1,185
12,19,right,male,2,24,恶人,T.bmp,Bad,Yes,m,m,1,255
12,19,right,male,2,25,常人,C.bmp,Good,No,n,m,0,278
12,19,right,male,2,26,常人,S.bmp,Normal,Yes,m,m,1,215
12,19,right,male,2,27,善人,C.bmp,Good,Yes,m,m,1,465
12,19,right,male,2,28,恶人,T.bmp,Bad,Yes,m,n,0,276
12,19,right,male,2,29,常人,T.bmp,Bad,No,n,m,0,225
12,19,right,male,2,30,常人,S.bmp,Normal,Yes,m,m,1,212
12,19,right,male,2,31,恶人,T.bmp,Bad,Yes,m,m,1,332
12,19,right,male,2,32,恶人,C.bmp,Good,No,n,m,0,321
12,19,right,male,2,33,善人,S.bmp,Normal,No,n,m,0,811
12,19,right,male,2,34,善人,T.bmp,Bad,No,n,m,0,449
12,19,right,male,2,35,善人,C.bmp,Good,Yes,m,m,1,256
12,19,right,male,2,36,恶人,S.bmp,Normal,No,n,n,1,252
12,19,right,male,2,37,恶人,T.bmp,Bad,Yes,m,m,1,143
12,19,right,male,2,38,恶人,C.bmp,Good,No,n,n,1,252
12,19,right,male,2,39,善人,C.bmp,Good,Yes,m,n,0,249
12,19,right,male,2,40,善人,C.bmp,Good,Yes,m,m,1,109
12,19,right,male,2,41,恶人,T.bmp,Bad,Yes,m,n,0,177
12,19,right,male,2,42,常人,T.bmp,Bad,No,n,m,0,50
12,19,right,male,2,43,恶人,S.bmp,Normal,No,n,,0,0
12,19,right,male,2,44,常人,S.bmp,Normal,Yes,m,m,1,467
12,19,right,male,2,45,善人,S.bmp,Normal,No,n,n,1,258
12,19,right,male,2,46,常人,S.bmp,Normal,Yes,m,m,1,227
12,19,right,male,2,47,善人,T.bmp,Bad,No,n,n,1,311
12,19,right,male,2,48,常人,C.bmp,Good,No,n,m,0,274
12,19,right,male,2,49,常人,S.bmp,Normal,Yes,m,m,1,156
12,19,right,male,2,50,恶人,C.bmp,Good,No,n,n,1,258
12,19,right,male,2,51,常人,T.bmp,Bad,No,n,n,1,532
12,19,right,male,2,52,常人,S.bmp,Normal,Yes,m,n,0,508
12,19,right,male,2,53,善人,C.bmp,Good,Yes,m,m,1,298
12,19,right,male,2,54,常人,C.bmp,Good,No,n,n,1,264
12,19,right,male,2,55,善人,T.bmp,Bad,No,n,n,1,345
12,19,right,male,2,56,善人,C.bmp,Good,Yes,m,m,1,272
12,19,right,male,2,57,恶人,T.bmp,Bad,Yes,m,n,0,283
12,19,right,male,2,58,恶人,S.bmp,Normal,No,n,n,1,366
12,19,right,male,2,59,恶人,T.bmp,Bad,Yes,m,m,1,252
12,19,right,male,2,60,善人,S.bmp,Normal,No,n,n,1,149
12,19,right,male,3,1,善人,C.bmp,Good,Yes,m,m,1,385
12,19,right,male,3,2,恶人,S.bmp,Normal,No,n,m,0,623
12,19,right,male,3,3,恶人,T.bmp,Bad,Yes,m,m,1,327
12,19,right,male,3,4,常人,T.bmp,Bad,No,n,n,1,918
12,19,right,male,3,5,善人,S.bmp,Normal,No,n,m,0,482
12,19,right,male,3,6,恶人,T.bmp,Bad,Yes,m,m,1,298
12,19,right,male,3,7,常人,S.bmp,Normal,Yes,m,n,0,328
12,19,right,male,3,8,善人,C.bmp,Good,Yes,m,m,1,260
12,19,right,male,3,9,常人,C.bmp,Good,No,n,m,0,540
12,19,right,male,3,10,善人,T.bmp,Bad,No,n,m,0,315
12,19,right,male,3,11,恶人,C.bmp,Good,No,n,m,0,229
12,19,right,male,3,12,常人,S.bmp,Normal,Yes,m,m,1,335
12,19,right,male,3,13,善人,C.bmp,Good,Yes,m,n,0,281
12,19,right,male,3,14,恶人,S.bmp,Normal,No,n,m,0,250
12,19,right,male,3,15,善人,C.bmp,Good,Yes,m,n,0,213
12,19,right,male,3,16,常人,S.bmp,Normal,Yes,m,n,0,317
12,19,right,male,3,17,善人,S.bmp,Normal,No,n,n,1,340
12,19,right,male,3,18,善人,T.bmp,Bad,No,n,m,0,252
12,19,right,male,3,19,恶人,T.bmp,Bad,Yes,m,n,0,179
12,19,right,male,3,20,常人,S.bmp,Normal,Yes,m,n,0,363
12,19,right,male,3,21,恶人,T.bmp,Bad,Yes,m,m,1,126
12,19,right,male,3,22,恶人,C.bmp,Good,No,n,m,0,282
12,19,right,male,3,23,常人,T.bmp,Bad,No,n,m,0,278
12,19,right,male,3,24,常人,C.bmp,Good,No,n,n,1,216
12,19,right,male,3,25,善人,C.bmp,Good,Yes,m,n,0,179
12,19,right,male,3,26,善人,S.bmp,Normal,No,n,n,1,191
12,19,right,male,3,27,善人,C.bmp,Good,Yes,m,m,1,177
12,19,right,male,3,28,常人,C.bmp,Good,No,n,n,1,188
12,19,right,male,3,29,恶人,C.bmp,Good,No,n,m,0,196
12,19,right,male,3,30,常人,T.bmp,Bad,No,n,m,0,513
12,19,right,male,3,31,恶人,T.bmp,Bad,Yes,m,m,1,74
12,19,right,male,3,32,常人,S.bmp,Normal,Yes,m,,0,0
12,19,right,male,3,33,善人,T.bmp,Bad,No,n,m,0,338
12,19,right,male,3,34,恶人,T.bmp,Bad,Yes,m,n,0,249
12,19,right,male,3,35,常人,S.bmp,Normal,Yes,m,m,1,81
12,19,right,male,3,36,恶人,S.bmp,Normal,No,n,m,0,230
12,19,right,male,3,37,常人,C.bmp,Good,No,n,n,1,25
12,19,right,male,3,38,恶人,C.bmp,Good,No,n,m,0,56
12,19,right,male,3,39,常人,S.bmp,Normal,Yes,m,m,1,34
12,19,right,male,3,40,常人,S.bmp,Normal,Yes,m,m,1,77
12,19,right,male,3,41,善人,T.bmp,Bad,No,n,n,1,140
12,19,right,male,3,42,恶人,T.bmp,Bad,Yes,m,n,0,65
12,19,right,male,3,43,善人,C.bmp,Good,Yes,m,n,0,80
12,19,right,male,3,44,恶人,T.bmp,Bad,Yes,m,m,1,164
12,19,right,male,3,45,常人,T.bmp,Bad,No,n,,0,0
12,19,right,male,3,46,善人,C.bmp,Good,Yes,m,n,0,174
12,19,right,male,3,47,恶人,S.bmp,Normal,No,n,m,0,128
12,19,right,male,3,48,善人,S.bmp,Normal,No,n,,0,0
12,19,right,male,3,49,恶人,T.bmp,Bad,Yes,m,n,0,214
12,19,right,male,3,50,常人,T.bmp,Bad,No,n,m,0,292
12,19,right,male,3,51,善人,T.bmp,Bad,No,n,m,0,208
12,19,right,male,3,52,常人,S.bmp,Normal,Yes,m,,0,0
12,19,right,male,3,53,恶人,S.bmp,Normal,No,n,n,1,171
12,19,right,male,3,54,善人,C.bmp,Good,Yes,m,m,1,302
12,19,right,male,3,55,恶人,T.bmp,Bad,Yes,m,m,1,263
12,19,right,male,3,56,常人,S.bmp,Normal,Yes,m,m,1,311
12,19,right,male,3,57,常人,C.bmp,Good,No,n,n,1,342
12,19,right,male,3,58,善人,S.bmp,Normal,No,n,m,0,285
12,19,right,male,3,59,恶人,C.bmp,Good,No,n,m,0,148
12,19,right,male,3,60,善人,C.bmp,Good,Yes,m,,0,0
12,19,right,male,4,1,善人,S.bmp,Normal,No,n,m,0,438
12,19,right,male,4,2,常人,C.bmp,Good,No,n,m,0,255
12,19,right,male,4,3,恶人,T.bmp,Bad,Yes,m,n,0,529
12,19,right,male,4,4,恶人,T.bmp,Bad,Yes,m,m,1,282
12,19,right,male,4,5,善人,C.bmp,Good,Yes,m,m,1,413
12,19,right,male,4,6,常人,S.bmp,Normal,Yes,m,m,1,302
12,19,right,male,4,7,善人,C.bmp,Good,Yes,m,m,1,285
12,19,right,male,4,8,善人,T.bmp,Bad,No,n,m,0,343
12,19,right,male,4,9,恶人,C.bmp,Good,No,n,m,0,250
12,19,right,male,4,10,常人,S.bmp,Normal,Yes,m,m,1,168
12,19,right,male,4,11,常人,T.bmp,Bad,No,n,n,1,733
12,19,right,male,4,12,恶人,S.bmp,Normal,No,n,m,0,460
12,19,right,male,4,13,常人,S.bmp,Normal,Yes,m,m,1,361
12,19,right,male,4,14,恶人,T.bmp,Bad,Yes,m,n,0,133
12,19,right,male,4,15,善人,S.bmp,Normal,No,n,n,1,198
12,19,right,male,4,16,常人,S.bmp,Normal,Yes,m,n,0,215
12,19,right,male,4,17,善人,C.bmp,Good,Yes,m,m,1,167
12,19,right,male,4,18,善人,T.bmp,Bad,No,n,m,0,259
12,19,right,male,4,19,常人,T.bmp,Bad,No,n,m,0,194
12,19,right,male,4,20,恶人,S.bmp,Normal,No,n,m,0,188
12,19,right,male,4,21,善人,C.bmp,Good,Yes,m,m,1,290
12,19,right,male,4,22,恶人,C.bmp,Good,No,n,n,1,654
12,19,right,male,4,23,恶人,T.bmp,Bad,Yes,m,m,1,578
12,19,right,male,4,24,常人,C.bmp,Good,No,n,m,0,589
12,19,right,male,4,25,常人,T.bmp,Bad,No,n,m,0,400
12,19,right,male,4,26,常人,S.bmp,Normal,Yes,m,m,1,686
12,19,right,male,4,27,恶人,T.bmp,Bad,Yes,m,n,0,339
12,19,right,male,4,28,恶人,T.bmp,Bad,Yes,m,n,0,498
12,19,right,male,4,29,善人,C.bmp,Good,Yes,m,m,1,758
12,19,right,male,4,30,恶人,C.bmp,Good,No,n,n,1,802
12,19,right,male,4,31,常人,C.bmp,Good,No,n,m,0,563
12,19,right,male,4,32,善人,T.bmp,Bad,No,n,m,0,244
12,19,right,male,4,33,恶人,S.bmp,Normal,No,n,m,0,251
12,19,right,male,4,34,常人,S.bmp,Normal,Yes,m,m,1,206
12,19,right,male,4,35,善人,S.bmp,Normal,No,n,n,1,292
12,19,right,male,4,36,善人,C.bmp,Good,Yes,m,n,0,541
12,19,right,male,4,37,善人,T.bmp,Bad,No,n,n,1,749
12,19,right,male,4,38,常人,S.bmp,Normal,Yes,m,m,1,676
12,19,right,male,4,39,常人,S.bmp,Normal,Yes,m,n,0,942
12,19,right,male,4,40,恶人,T.bmp,Bad,Yes,m,m,1,750
12,19,right,male,4,41,常人,T.bmp,Bad,No,n,n,1,601
12,19,right,male,4,42,常人,C.bmp,Good,No,n,m,0,414
12,19,right,male,4,43,恶人,C.bmp,Good,No,n,n,1,304
12,19,right,male,4,44,善人,C.bmp,Good,Yes,m,n,0,299
12,19,right,male,4,45,善人,S.bmp,Normal,No,n,m,0,860
12,19,right,male,4,46,恶人,S.bmp,Normal,No,n,n,1,746
12,19,right,male,4,47,恶人,T.bmp,Bad,Yes,m,m,1,578
12,19,right,male,4,48,善人,C.bmp,Good,Yes,m,m,1,611
12,19,right,male,4,49,善人,C.bmp,Good,Yes,m,m,1,474
12,19,right,male,4,50,恶人,S.bmp,Normal,No,n,n,1,507
12,19,right,male,4,51,恶人,C.bmp,Good,No,n,n,1,708
12,19,right,male,4,52,善人,C.bmp,Good,Yes,m,m,1,691
12,19,right,male,4,53,常人,T.bmp,Bad,No,n,n,1,811
12,19,right,male,4,54,善人,T.bmp,Bad,No,n,m,0,659
12,19,right,male,4,55,恶人,T.bmp,Bad,Yes,m,m,1,493
12,19,right,male,4,56,常人,C.bmp,Good,No,n,n,1,362
12,19,right,male,4,57,善人,S.bmp,Normal,No,n,n,1,628
12,19,right,male,4,58,常人,S.bmp,Normal,Yes,m,m,1,624
12,19,right,male,4,59,恶人,T.bmp,Bad,Yes,m,m,1,705
12,19,right,male,4,60,常人,S.bmp,Normal,Yes,m,m,1,985
12,19,right,male,5,1,恶人,S.bmp,Normal,No,n,,0,0
12,19,right,male,5,2,常人,C.bmp,Good,No,n,m,0,617
12,19,right,male,5,3,善人,S.bmp,Normal,No,n,m,0,532
12,19,right,male,5,4,常人,T.bmp,Bad,No,n,,0,0
12,19,right,male,5,5,恶人,C.bmp,Good,No,n,m,0,823
12,19,right,male,5,6,善人,C.bmp,Good,Yes,m,m,1,1053
12,19,right,male,5,7,善人,C.bmp,Good,Yes,m,m,1,604
12,19,right,male,5,8,恶人,T.bmp,Bad,Yes,m,m,1,870
12,19,right,male,5,9,善人,T.bmp,Bad,No,n,m,0,774
12,19,right,male,5,10,恶人,T.bmp,Bad,Yes,m,m,1,740
12,19,right,male,5,11,常人,S.bmp,Normal,Yes,m,m,1,715
12,19,right,male,5,12,常人,S.bmp,Normal,Yes,m,m,1,910
12,19,right,male,5,13,善人,T.bmp,Bad,No,n,n,1,708
12,19,right,male,5,14,善人,C.bmp,Good,Yes,m,m,1,775
12,19,right,male,5,15,善人,C.bmp,Good,Yes,m,m,1,600
12,19,right,male,5,16,恶人,T.bmp,Bad,Yes,m,m,1,927
12,19,right,male,5,17,善人,S.bmp,Normal,No,n,n,1,991
12,19,right,male,5,18,常人,C.bmp,Good,No,n,n,1,1024
12,19,right,male,5,19,恶人,S.bmp,Normal,No,n,m,0,942
12,19,right,male,5,20,恶人,C.bmp,Good,No,n,n,1,874
12,19,right,male,5,21,常人,S.bmp,Normal,Yes,m,m,1,698
12,19,right,male,5,22,常人,S.bmp,Normal,Yes,m,m,1,642
12,19,right,male,5,23,恶人,T.bmp,Bad,Yes,m,m,1,785
12,19,right,male,5,24,常人,T.bmp,Bad,No,n,m,0,714
12,19,right,male,5,25,常人,T.bmp,Bad,No,n,n,1,787
12,19,right,male,5,26,恶人,S.bmp,Normal,No,n,n,1,886
12,19,right,male,5,27,常人,S.bmp,Normal,Yes,m,m,1,866
12,19,right,male,5,28,常人,C.bmp,Good,No,n,n,1,910
12,19,right,male,5,29,善人,C.bmp,Good,Yes,m,,0,0
12,19,right,male,5,30,恶人,T.bmp,Bad,Yes,m,m,1,920
12,19,right,male,5,31,善人,S.bmp,Normal,No,n,n,1,1002
12,19,right,male,5,32,恶人,C.bmp,Good,No,n,n,1,825
12,19,right,male,5,33,恶人,T.bmp,Bad,Yes,m,m,1,837
12,19,right,male,5,34,善人,C.bmp,Good,Yes,m,m,1,769
12,19,right,male,5,35,善人,T.bmp,Bad,No,n,m,0,803
12,19,right,male,5,36,常人,S.bmp,Normal,Yes,m,m,1,914
12,19,right,male,5,37,善人,C.bmp,Good,Yes,m,m,1,816
12,19,right,male,5,38,常人,S.bmp,Normal,Yes,m,m,1,979
12,19,right,male,5,39,恶人,S.bmp,Normal,No,n,n,1,833
12,19,right,male,5,40,善人,T.bmp,Bad,No,n,m,0,832
12,19,right,male,5,41,常人,S.bmp,Normal,Yes,m,m,1,783
12,19,right,male,5,42,恶人,C.bmp,Good,No,n,n,1,904
12,19,right,male,5,43,善人,C.bmp,Good,Yes,m,m,1,820
12,19,right,male,5,44,常人,T.bmp,Bad,No,n,n,1,882
12,19,right,male,5,45,常人,C.bmp,Good,No,n,m,0,803
12,19,right,male,5,46,恶人,T.bmp,Bad,Yes,m,m,1,765
12,19,right,male,5,47,善人,S.bmp,Normal,No,n,m,0,921
12,19,right,male,5,48,恶人,T.bmp,Bad,Yes,m,m,1,935
12,19,right,male,5,49,善人,C.bmp,Good,Yes,m,,0,0
12,19,right,male,5,50,善人,S.bmp,Normal,No,n,n,1,906
12,19,right,male,5,51,常人,S.bmp,Normal,Yes,m,m,1,882
12,19,right,male,5,52,善人,T.bmp,Bad,No,n,n,1,954
12,19,right,male,5,53,常人,T.bmp,Bad,No,n,m,0,977
12,19,right,male,5,54,恶人,T.bmp,Bad,Yes,m,m,1,811
12,19,right,male,5,55,恶人,C.bmp,Good,No,n,,0,0
12,19,right,male,5,56,常人,S.bmp,Normal,Yes,m,m,1,943
12,19,right,male,5,57,常人,C.bmp,Good,No,n,m,0,1041
12,19,right,male,5,58,善人,C.bmp,Good,Yes,m,m,1,945
12,19,right,male,5,59,恶人,T.bmp,Bad,Yes,m,m,1,911
12,19,right,male,5,60,恶人,S.bmp,Normal,No,n,n,1,855
12,19,right,male,6,1,善人,C.bmp,Good,Yes,m,m,1,634
12,19,right,male,6,2,恶人,T.bmp,Bad,Yes,m,m,1,689
12,19,right,male,6,3,常人,T.bmp,Bad,No,n,n,1,1014
12,19,right,male,6,4,恶人,C.bmp,Good,No,n,,0,0
12,19,right,male,6,5,恶人,T.bmp,Bad,Yes,m,m,1,604
12,19,right,male,6,6,善人,C.bmp,Good,Yes,m,m,1,624
12,19,right,male,6,7,恶人,S.bmp,Normal,No,n,n,1,690
12,19,right,male,6,8,常人,C.bmp,Good,No,n,n,1,813
12,19,right,male,6,9,常人,S.bmp,Normal,Yes,m,n,0,678
12,19,right,male,6,10,善人,S.bmp,Normal,No,n,m,0,577
12,19,right,male,6,11,善人,T.bmp,Bad,No,n,m,0,605
12,19,right,male,6,12,常人,S.bmp,Normal,Yes,m,n,0,943
12,19,right,male,6,13,善人,C.bmp,Good,Yes,m,m,1,727
12,19,right,male,6,14,常人,S.bmp,Normal,Yes,m,m,1,1097
12,19,right,male,6,15,常人,C.bmp,Good,No,n,n,1,936
12,19,right,male,6,16,善人,T.bmp,Bad,No,n,n,1,718
12,19,right,male,6,17,恶人,C.bmp,Good,No,n,m,0,777
12,19,right,male,6,18,恶人,T.bmp,Bad,Yes,m,m,1,844
12,19,right,male,6,19,恶人,T.bmp,Bad,Yes,m,m,1,619
12,19,right,male,6,20,善人,S.bmp,Normal,No,n,n,1,1034
12,19,right,male,6,21,善人,C.bmp,Good,Yes,m,m,1,828
12,19,right,male,6,22,恶人,S.bmp,Normal,No,n,n,1,858
12,19,right,male,6,23,常人,T.bmp,Bad,No,n,n,1,1062
12,19,right,male,6,24,常人,S.bmp,Normal,Yes,m,m,1,806
12,19,right,male,6,25,善人,T.bmp,Bad,No,n,n,1,789
12,19,right,male,6,26,恶人,S.bmp,Normal,No,n,n,1,778
12,19,right,male,6,27,常人,C.bmp,Good,No,n,n,1,789
12,19,right,male,6,28,恶人,T.bmp,Bad,Yes,m,m,1,789
12,19,right,male,6,29,善人,C.bmp,Good,Yes,m,m,1,635
12,19,right,male,6,30,常人,S.bmp,Normal,Yes,m,m,1,522
12,19,right,male,6,31,善人,S.bmp,Normal,No,n,n,1,736
12,19,right,male,6,32,常人,T.bmp,Bad,No,n,n,1,760
12,19,right,male,6,33,善人,C.bmp,Good,Yes,m,m,1,670
12,19,right,male,6,34,恶人,C.bmp,Good,No,n,n,1,779
12,19,right,male,6,35,恶人,T.bmp,Bad,Yes,m,m,1,654
12,19,right,male,6,36,常人,S.bmp,Normal,Yes,m,n,0,694
12,19,right,male,6,37,恶人,S.bmp,Normal,No,n,n,1,685
12,19,right,male,6,38,恶人,T.bmp,Bad,Yes,m,m,1,564
12,19,right,male,6,39,恶人,T.bmp,Bad,Yes,m,m,1,670
12,19,right,male,6,40,善人,S.bmp,Normal,No,n,n,1,591
12,19,right,male,6,41,常人,S.bmp,Normal,Yes,m,m,1,748
12,19,right,male,6,42,善人,T.bmp,Bad,No,n,m,0,677
12,19,right,male,6,43,善人,C.bmp,Good,Yes,m,m,1,511
12,19,right,male,6,44,常人,S.bmp,Normal,Yes,m,m,1,670
12,19,right,male,6,45,恶人,C.bmp,Good,No,n,n,1,729
12,19,right,male,6,46,善人,C.bmp,Good,Yes,m,m,1,639
12,19,right,male,6,47,常人,T.bmp,Bad,No,n,m,0,694
12,19,right,male,6,48,常人,C.bmp,Good,No,n,m,0,444
12,19,right,male,6,49,善人,S.bmp,Normal,No,n,m,0,553
12,19,right,male,6,50,恶人,T.bmp,Bad,Yes,m,m,1,569
12,19,right,male,6,51,恶人,T.bmp,Bad,Yes,m,m,1,804
12,19,right,male,6,52,善人,T.bmp,Bad,No,n,n,1,759
12,19,right,male,6,53,恶人,S.bmp,Normal,No,n,m,0,621
12,19,right,male,6,54,常人,T.bmp,Bad,No,n,m,0,531
12,19,right,male,6,55,善人,C.bmp,Good,Yes,m,m,1,606
12,19,right,male,6,56,恶人,C.bmp,Good,No,n,n,1,749
12,19,right,male,6,57,常人,S.bmp,Normal,Yes,m,n,0,609
12,19,right,male,6,58,常人,S.bmp,Normal,Yes,m,m,1,715
12,19,right,male,6,59,常人,C.bmp,Good,No,n,,0,0
12,19,right,male,6,60,善人,C.bmp,Good,Yes,m,m,1,728
13,22,right,female,,1,常人,C.bmp,Normal,Yes,n,,0,0
13,22,right,female,,2,恶人,S.bmp,Bad,Yes,n,,0,0
13,22,right,female,,3,常人,T.bmp,Good,No,m,,0,0
13,22,right,female,,4,常人,C.bmp,Normal,Yes,n,n,1,363
13,22,right,female,,5,善人,S.bmp,Bad,No,m,m,1,402
13,22,right,female,,6,善人,T.bmp,Good,Yes,n,n,1,329
13,22,right,female,,7,恶人,S.bmp,Bad,Yes,n,m,0,477
13,22,right,female,,8,恶人,C.bmp,Normal,No,m,n,0,387
13,22,right,female,,9,常人,S.bmp,Bad,No,m,m,1,582
13,22,right,female,,10,善人,C.bmp,Normal,No,m,n,0,255
13,22,right,female,,11,恶人,T.bmp,Good,No,m,m,1,739
13,22,right,female,,12,善人,T.bmp,Good,Yes,n,m,0,434
13,22,right,female,,13,善人,T.bmp,Good,Yes,n,n,1,329
13,22,right,female,,14,善人,T.bmp,Good,Yes,n,n,1,354
13,22,right,female,,15,恶人,C.bmp,Normal,No,m,m,1,549
13,22,right,female,,16,恶人,S.bmp,Bad,Yes,n,m,0,547
13,22,right,female,,17,恶人,T.bmp,Good,No,m,n,0,801
13,22,right,female,,18,常人,C.bmp,Normal,Yes,n,n,1,1054
13,22,right,female,,19,常人,S.bmp,Bad,No,m,m,1,775
13,22,right,female,,20,恶人,S.bmp,Bad,Yes,n,m,0,733
13,22,right,female,,21,常人,C.bmp,Normal,Yes,n,m,0,719
13,22,right,female,,22,常人,T.bmp,Good,No,m,m,1,961
13,22,right,female,,23,善人,C.bmp,Normal,No,m,n,0,501
13,22,right,female,,24,善人,S.bmp,Bad,No,m,m,1,976
13,22,right,female,1,1,恶人,S.bmp,Bad,Yes,n,n,1,956
13,22,right,female,1,2,常人,C.bmp,Normal,Yes,n,n,1,976
13,22,right,female,1,3,常人,T.bmp,Good,No,m,m,1,742
13,22,right,female,1,4,恶人,T.bmp,Good,No,m,m,1,620
13,22,right,female,1,5,恶人,C.bmp,Normal,No,m,m,1,896
13,22,right,female,1,6,常人,C.bmp,Normal,Yes,n,n,1,688
13,22,right,female,1,7,善人,T.bmp,Good,Yes,n,n,1,631
13,22,right,female,1,8,善人,C.bmp,Normal,No,m,m,1,754
13,22,right,female,1,9,善人,S.bmp,Bad,No,m,m,1,838
13,22,right,female,1,10,善人,T.bmp,Good,Yes,n,n,1,649
13,22,right,female,1,11,常人,S.bmp,Bad,No,m,m,1,816
13,22,right,female,1,12,恶人,S.bmp,Bad,Yes,n,n,1,710
13,22,right,female,1,13,善人,S.bmp,Bad,No,m,m,1,925
13,22,right,female,1,14,恶人,C.bmp,Normal,No,m,m,1,920
13,22,right,female,1,15,常人,C.bmp,Normal,Yes,n,m,0,639
13,22,right,female,1,16,常人,S.bmp,Bad,No,m,m,1,801
13,22,right,female,1,17,恶人,S.bmp,Bad,Yes,n,n,1,820
13,22,right,female,1,18,善人,C.bmp,Normal,No,m,m,1,784
13,22,right,female,1,19,常人,C.bmp,Normal,Yes,n,n,1,776
13,22,right,female,1,20,恶人,S.bmp,Bad,Yes,n,m,0,589
13,22,right,female,1,21,常人,T.bmp,Good,No,m,n,0,540
13,22,right,female,1,22,善人,T.bmp,Good,Yes,n,n,1,518
13,22,right,female,1,23,恶人,T.bmp,Good,No,m,m,1,800
13,22,right,female,1,24,善人,T.bmp,Good,Yes,n,n,1,861
13,22,right,female,1,25,恶人,S.bmp,Bad,Yes,n,n,1,836
13,22,right,female,1,26,恶人,T.bmp,Good,No,m,m,1,648
13,22,right,female,1,27,常人,C.bmp,Normal,Yes,n,n,1,786
13,22,right,female,1,28,恶人,S.bmp,Bad,Yes,n,n,1,879
13,22,right,female,1,29,恶人,C.bmp,Normal,No,m,n,0,854
13,22,right,female,1,30,常人,T.bmp,Good,No,m,m,1,712
13,22,right,female,1,31,善人,T.bmp,Good,Yes,n,n,1,645
13,22,right,female,1,32,善人,C.bmp,Normal,No,m,m,1,584
13,22,right,female,1,33,善人,T.bmp,Good,Yes,n,n,1,537
13,22,right,female,1,34,常人,C.bmp,Normal,Yes,n,n,1,730
13,22,right,female,1,35,常人,S.bmp,Bad,No,m,m,1,870
13,22,right,female,1,36,善人,S.bmp,Bad,No,m,n,0,781
13,22,right,female,1,37,常人,C.bmp,Normal,Yes,n,n,1,646
13,22,right,female,1,38,善人,S.bmp,Bad,No,m,m,1,712
13,22,right,female,1,39,善人,T.bmp,Good,Yes,n,n,1,520
13,22,right,female,1,40,恶人,S.bmp,Bad,Yes,n,n,1,888
13,22,right,female,1,41,恶人,T.bmp,Good,No,m,m,1,729
13,22,right,female,1,42,善人,C.bmp,Normal,No,m,m,1,996
13,22,right,female,1,43,常人,S.bmp,Bad,No,m,m,1,803
13,22,right,female,1,44,善人,T.bmp,Good,Yes,n,n,1,502
13,22,right,female,1,45,常人,C.bmp,Normal,Yes,n,m,0,588
13,22,right,female,1,46,恶人,C.bmp,Normal,No,m,m,1,775
13,22,right,female,1,47,常人,T.bmp,Good,No,m,m,1,792
13,22,right,female,1,48,恶人,S.bmp,Bad,Yes,n,m,0,556
13,22,right,female,1,49,常人,S.bmp,Bad,No,m,n,0,550
13,22,right,female,1,50,常人,C.bmp,Normal,Yes,n,n,1,772
13,22,right,female,1,51,善人,T.bmp,Good,Yes,n,n,1,656
13,22,right,female,1,52,常人,T.bmp,Good,No,m,n,0,717
13,22,right,female,1,53,恶人,S.bmp,Bad,Yes,n,n,1,749
13,22,right,female,1,54,恶人,S.bmp,Bad,Yes,n,n,1,811
13,22,right,female,1,55,善人,S.bmp,Bad,No,m,m,1,728
13,22,right,female,1,56,善人,T.bmp,Good,Yes,n,n,1,566
13,22,right,female,1,57,善人,C.bmp,Normal,No,m,m,1,879
13,22,right,female,1,58,常人,C.bmp,Normal,Yes,n,,0,0
13,22,right,female,1,59,恶人,C.bmp,Normal,No,m,,0,0
13,22,right,female,1,60,恶人,T.bmp,Good,No,m,n,0,689
13,22,right,female,2,1,善人,S.bmp,Bad,No,m,n,0,895
13,22,right,female,2,2,善人,T.bmp,Good,Yes,n,n,1,677
13,22,right,female,2,3,常人,T.bmp,Good,No,m,m,1,694
13,22,right,female,2,4,善人,T.bmp,Good,Yes,n,m,0,614
13,22,right,female,2,5,恶人,C.bmp,Normal,No,m,m,1,1091
13,22,right,female,2,6,常人,C.bmp,Normal,Yes,n,n,1,598
13,22,right,female,2,7,恶人,S.bmp,Bad,Yes,n,n,1,765
13,22,right,female,2,8,恶人,T.bmp,Good,No,m,m,1,648
13,22,right,female,2,9,常人,S.bmp,Bad,No,m,n,0,833
13,22,right,female,2,10,善人,C.bmp,Normal,No,m,m,1,674
13,22,right,female,2,11,常人,C.bmp,Normal,Yes,n,m,0,733
13,22,right,female,2,12,恶人,S.bmp,Bad,Yes,n,m,0,644
13,22,right,female,2,13,善人,T.bmp,Good,Yes,n,,0,0
13,22,right,female,2,14,常人,S.bmp,Bad,No,m,m,1,897
13,22,right,female,2,15,常人,C.bmp,Normal,Yes,n,n,1,418
13,22,right,female,2,16,常人,C.bmp,Normal,Yes,n,,0,0
13,22,right,female,2,17,善人,C.bmp,Normal,No,m,,0,0
13,22,right,female,2,18,恶人,C.bmp,Normal,No,m,,0,0
13,22,right,female,2,19,善人,T.bmp,Good,Yes,n,n,1,758
13,22,right,female,2,20,恶人,T.bmp,Good,No,m,m,1,677
13,22,right,female,2,21,常人,T.bmp,Good,No,m,,0,0
13,22,right,female,2,22,善人,S.bmp,Bad,No,m,,0,0
13,22,right,female,2,23,恶人,S.bmp,Bad,Yes,n,m,0,563
13,22,right,female,2,24,恶人,S.bmp,Bad,Yes,n,,0,0
13,22,right,female,2,25,常人,C.bmp,Normal,Yes,n,n,1,389
13,22,right,female,2,26,善人,C.bmp,Normal,No,m,,0,0
13,22,right,female,2,27,恶人,C.bmp,Normal,No,m,,0,0
13,22,right,female,2,28,善人,S.bmp,Bad,No,m,n,0,369
13,22,right,female,2,29,恶人,S.bmp,Bad,Yes,n,,0,0
13,22,right,female,2,30,恶人,T.bmp,Good,No,m,n,0,280
13,22,right,female,2,31,常人,T.bmp,Good,No,m,m,1,898
13,22,right,female,2,32,恶人,S.bmp,Bad,Yes,n,m,0,688
13,22,right,female,2,33,常人,C.bmp,Normal,Yes,n,n,1,395
13,22,right,female,2,34,善人,T.bmp,Good,Yes,n,n,1,813
13,22,right,female,2,35,常人,S.bmp,Bad,No,m,m,1,592
13,22,right,female,2,36,善人,T.bmp,Good,Yes,n,n,1,319
13,22,right,female,2,37,恶人,S.bmp,Bad,Yes,n,m,0,527
13,22,right,female,2,38,善人,T.bmp,Good,Yes,n,n,1,1082
13,22,right,female,2,39,恶人,S.bmp,Bad,Yes,n,n,1,682
13,22,right,female,2,40,常人,S.bmp,Bad,No,m,m,1,732
13,22,right,female,2,41,恶人,C.bmp,Normal,No,m,n,0,361
13,22,right,female,2,42,常人,T.bmp,Good,No,m,n,0,376
13,22,right,female,2,43,常人,C.bmp,Normal,Yes,n,n,1,663
13,22,right,female,2,44,常人,C.bmp,Normal,Yes,n,n,1,1031
13,22,right,female,2,45,善人,C.bmp,Normal,No,m,m,1,891
13,22,right,female,2,46,恶人,T.bmp,Good,No,m,n,0,492
13,22,right,female,2,47,善人,S.bmp,Bad,No,m,n,0,699
13,22,right,female,2,48,善人,T.bmp,Good,Yes,n,m,0,456
13,22,right,female,2,49,恶人,S.bmp,Bad,Yes,n,n,1,716
13,22,right,female,2,50,善人,T.bmp,Good,Yes,n,n,1,582
13,22,right,female,2,51,常人,C.bmp,Normal,Yes,n,m,0,397
13,22,right,female,2,52,恶人,T.bmp,Good,No,m,m,1,717
13,22,right,female,2,53,善人,S.bmp,Bad,No,m,m,1,645
13,22,right,female,2,54,常人,C.bmp,Normal,Yes,n,n,1,313
13,22,right,female,2,55,善人,T.bmp,Good,Yes,n,n,1,564
13,22,right,female,2,56,恶人,S.bmp,Bad,Yes,n,n,1,461
13,22,right,female,2,57,常人,S.bmp,Bad,No,m,m,1,537
13,22,right,female,2,58,常人,T.bmp,Good,No,m,n,0,283
13,22,right,female,2,59,恶人,C.bmp,Normal,No,m,m,1,692
13,22,right,female,2,60,善人,C.bmp,Normal,No,m,n,0,567
13,22,right,female,3,1,善人,T.bmp,Good,Yes,n,n,1,560
13,22,right,female,3,2,常人,C.bmp,Normal,Yes,n,n,1,727
13,22,right,female,3,3,常人,S.bmp,Bad,No,m,m,1,775
13,22,right,female,3,4,恶人,S.bmp,Bad,Yes,n,m,0,535
13,22,right,female,3,5,善人,T.bmp,Good,Yes,n,n,1,577
13,22,right,female,3,6,善人,S.bmp,Bad,No,m,m,1,780
13,22,right,female,3,7,恶人,S.bmp,Bad,Yes,n,n,1,688
13,22,right,female,3,8,恶人,C.bmp,Normal,No,m,m,1,1088
13,22,right,female,3,9,常人,C.bmp,Normal,Yes,n,n,1,416
13,22,right,female,3,10,恶人,T.bmp,Good,No,m,m,1,632
13,22,right,female,3,11,善人,C.bmp,Normal,No,m,n,0,409
13,22,right,female,3,12,常人,T.bmp,Good,No,m,m,1,922
13,22,right,female,3,13,恶人,C.bmp,Normal,No,m,m,1,668
13,22,right,female,3,14,常人,S.bmp,Bad,No,m,n,0,594
13,22,right,female,3,15,恶人,S.bmp,Bad,Yes,n,m,0,685
13,22,right,female,3,16,善人,T.bmp,Good,Yes,n,n,1,679
13,22,right,female,3,17,善人,C.bmp,Normal,No,m,m,1,595
13,22,right,female,3,18,常人,C.bmp,Normal,Yes,n,n,1,550
13,22,right,female,3,19,恶人,S.bmp,Bad,Yes,n,m,0,519
13,22,right,female,3,20,善人,T.bmp,Good,Yes,n,n,1,569
13,22,right,female,3,21,常人,C.bmp,Normal,Yes,n,n,1,407
13,22,right,female,3,22,恶人,T.bmp,Good,No,m,m,1,722
13,22,right,female,3,23,善人,S.bmp,Bad,No,m,m,1,733
13,22,right,female,3,24,常人,T.bmp,Good,No,m,n,0,427
13,22,right,female,3,25,恶人,S.bmp,Bad,Yes,n,n,1,812
13,22,right,female,3,26,常人,C.bmp,Normal,Yes,n,n,1,650
13,22,right,female,3,27,善人,C.bmp,Normal,No,m,m,1,859
13,22,right,female,3,28,善人,S.bmp,Bad,No,m,m,1,809
13,22,right,female,3,29,善人,T.bmp,Good,Yes,n,n,1,469
13,22,right,female,3,30,善人,T.bmp,Good,Yes,n,n,1,493
13,22,right,female,3,31,恶人,T.bmp,Good,No,m,m,1,560
13,22,right,female,3,32,常人,T.bmp,Good,No,m,m,1,591
13,22,right,female,3,33,恶人,S.bmp,Bad,Yes,n,n,1,764
13,22,right,female,3,34,恶人,C.bmp,Normal,No,m,m,1,656
13,22,right,female,3,35,常人,C.bmp,Normal,Yes,n,n,1,619
13,22,right,female,3,36,常人,S.bmp,Bad,No,m,m,1,678
13,22,right,female,3,37,恶人,C.bmp,Normal,No,m,n,0,678
13,22,right,female,3,38,恶人,S.bmp,Bad,Yes,n,m,0,622
13,22,right,female,3,39,常人,C.bmp,Normal,Yes,n,n,1,886
13,22,right,female,3,40,善人,S.bmp,Bad,No,m,m,1,692
13,22,right,female,3,41,善人,T.bmp,Good,Yes,n,n,1,477
13,22,right,female,3,42,常人,T.bmp,Good,No,m,n,0,424
13,22,right,female,3,43,恶人,S.bmp,Bad,Yes,n,m,0,708
13,22,right,female,3,44,善人,C.bmp,Normal,No,m,,0,0
13,22,right,female,3,45,常人,C.bmp,Normal,Yes,n,m,0,593
13,22,right,female,3,46,常人,S.bmp,Bad,No,m,m,1,674
13,22,right,female,3,47,恶人,T.bmp,Good,No,m,n,0,526
13,22,right,female,3,48,善人,T.bmp,Good,Yes,n,,0,0
13,22,right,female,3,49,善人,T.bmp,Good,Yes,n,n,1,636
13,22,right,female,3,50,恶人,T.bmp,Good,No,m,m,1,664
13,22,right,female,3,51,恶人,S.bmp,Bad,Yes,n,n,1,756
13,22,right,female,3,52,善人,T.bmp,Good,Yes,n,n,1,650
13,22,right,female,3,53,善人,S.bmp,Bad,No,m,m,1,1024
13,22,right,female,3,54,常人,C.bmp,Normal,Yes,n,n,1,519
13,22,right,female,3,55,常人,S.bmp,Bad,No,m,m,1,725
13,22,right,female,3,56,常人,T.bmp,Good,No,m,n,0,606
13,22,right,female,3,57,善人,C.bmp,Normal,No,m,n,0,693
13,22,right,female,3,58,常人,C.bmp,Normal,Yes,n,,0,0
13,22,right,female,3,59,恶人,S.bmp,Bad,Yes,n,n,1,831
13,22,right,female,3,60,恶人,C.bmp,Normal,No,m,,0,0
13,22,right,female,4,1,善人,S.bmp,Bad,No,m,m,1,849
13,22,right,female,4,2,善人,C.bmp,Normal,No,m,m,1,861
13,22,right,female,4,3,恶人,S.bmp,Bad,Yes,n,n,1,1036
13,22,right,female,4,4,善人,T.bmp,Good,Yes,n,n,1,640
13,22,right,female,4,5,恶人,S.bmp,Bad,Yes,n,m,0,824
13,22,right,female,4,6,恶人,C.bmp,Normal,No,m,m,1,991
13,22,right,female,4,7,常人,S.bmp,Bad,No,m,m,1,1017
13,22,right,female,4,8,善人,T.bmp,Good,Yes,n,n,1,797
13,22,right,female,4,9,常人,C.bmp,Normal,Yes,n,n,1,648
13,22,right,female,4,10,常人,C.bmp,Normal,Yes,n,n,1,464
13,22,right,female,4,11,恶人,T.bmp,Good,No,m,n,0,671
13,22,right,female,4,12,常人,T.bmp,Good,No,m,n,0,510
13,22,right,female,4,13,善人,T.bmp,Good,Yes,n,,0,0
13,22,right,female,4,14,善人,T.bmp,Good,Yes,n,m,0,696
13,22,right,female,4,15,恶人,C.bmp,Normal,No,m,n,0,668
13,22,right,female,4,16,恶人,T.bmp,Good,No,m,,0,0
13,22,right,female,4,17,恶人,S.bmp,Bad,Yes,n,n,1,731
13,22,right,female,4,18,常人,T.bmp,Good,No,m,m,1,1047
13,22,right,female,4,19,常人,S.bmp,Bad,No,m,m,1,612
13,22,right,female,4,20,常人,C.bmp,Normal,Yes,n,n,1,466
13,22,right,female,4,21,恶人,S.bmp,Bad,Yes,n,m,0,533
13,22,right,female,4,22,善人,S.bmp,Bad,No,m,,0,0
13,22,right,female,4,23,善人,C.bmp,Normal,No,m,,0,0
13,22,right,female,4,24,常人,C.bmp,Normal,Yes,n,n,1,326
13,22,right,female,4,25,善人,T.bmp,Good,Yes,n,,0,0
13,22,right,female,4,26,常人,C.bmp,Normal,Yes,n,n,1,680
13,22,right,female,4,27,善人,S.bmp,Bad,No,m,,0,0
13,22,right,female,4,28,善人,C.bmp,Normal,No,m,n,0,492
13,22,right,female,4,29,常人,S.bmp,Bad,No,m,m,1,875
13,22,right,female,4,30,恶人,S.bmp,Bad,Yes,n,,0,0
13,22,right,female,4,31,恶人,T.bmp,Good,No,m,n,0,274
13,22,right,female,4,32,恶人,S.bmp,Bad,Yes,n,m,0,338
13,22,right,female,4,33,常人,T.bmp,Good,No,m,n,0,290
13,22,right,female,4,34,善人,T.bmp,Good,Yes,n,n,1,458
13,22,right,female,4,35,恶人,C.bmp,Normal,No,m,m,1,430
13,22,right,female,4,36,常人,C.bmp,Normal,Yes,n,m,0,915
13,22,right,female,4,37,恶人,S.bmp,Bad,Yes,n,m,0,644
13,22,right,female,4,38,常人,S.bmp,Bad,No,m,n,0,563
13,22,right,female,4,39,恶人,S.bmp,Bad,Yes,n,m,0,732
13,22,right,female,4,40,常人,C.bmp,Normal,Yes,n,n,1,429
13,22,right,female,4,41,常人,C.bmp,Normal,Yes,n,n,1,384
13,22,right,female,4,42,善人,S.bmp,Bad,No,m,m,1,687
13,22,right,female,4,43,善人,T.bmp,Good,Yes,n,n,1,575
13,22,right,female,4,44,善人,C.bmp,Normal,No,m,m,1,572
13,22,right,female,4,45,常人,T.bmp,Good,No,m,m,1,682
13,22,right,female,4,46,恶人,C.bmp,Normal,No,m,n,0,422
13,22,right,female,4,47,善人,T.bmp,Good,Yes,n,n,1,427
13,22,right,female,4,48,恶人,T.bmp,Good,No,m,m,1,558
13,22,right,female,4,49,善人,T.bmp,Good,Yes,n,n,1,792
13,22,right,female,4,50,善人,S.bmp,Bad,No,m,m,1,609
13,22,right,female,4,51,善人,C.bmp,Normal,No,m,n,0,416
13,22,right,female,4,52,恶人,T.bmp,Good,No,m,m,1,656
13,22,right,female,4,53,常人,C.bmp,Normal,Yes,n,n,1,598
13,22,right,female,4,54,常人,T.bmp,Good,No,m,m,1,695
13,22,right,female,4,55,恶人,S.bmp,Bad,Yes,n,n,1,840
13,22,right,female,4,56,常人,S.bmp,Bad,No,m,m,1,738
13,22,right,female,4,57,恶人,C.bmp,Normal,No,m,m,1,657
13,22,right,female,4,58,善人,T.bmp,Good,Yes,n,n,1,442
13,22,right,female,4,59,常人,C.bmp,Normal,Yes,n,n,1,743
13,22,right,female,4,60,恶人,S.bmp,Bad,Yes,n,m,0,433
13,22,right,female,5,1,恶人,C.bmp,Normal,No,m,m,1,977
13,22,right,female,5,2,常人,C.bmp,Normal,Yes,n,n,1,561
13,22,right,female,5,3,常人,S.bmp,Bad,No,m,m,1,863
13,22,right,female,5,4,善人,S.bmp,Bad,No,m,n,0,824
13,22,right,female,5,5,善人,T.bmp,Good,Yes,n,n,1,528
13,22,right,female,5,6,恶人,T.bmp,Good,No,m,m,1,743
13,22,right,female,5,7,常人,T.bmp,Good,No,m,n,0,478
13,22,right,female,5,8,恶人,S.bmp,Bad,Yes,n,n,1,699
13,22,right,female,5,9,常人,C.bmp,Normal,Yes,n,m,0,724
13,22,right,female,5,10,恶人,S.bmp,Bad,Yes,n,n,1,623
13,22,right,female,5,11,善人,T.bmp,Good,Yes,n,n,1,537
13,22,right,female,5,12,善人,C.bmp,Normal,No,m,m,1,737
13,22,right,female,5,13,恶人,C.bmp,Normal,No,m,m,1,732
13,22,right,female,5,14,常人,C.bmp,Normal,Yes,n,n,1,482
13,22,right,female,5,15,常人,C.bmp,Normal,Yes,n,m,0,565
13,22,right,female,5,16,恶人,T.bmp,Good,No,m,m,1,665
13,22,right,female,5,17,善人,S.bmp,Bad,No,m,m,1,777
13,22,right,female,5,18,恶人,S.bmp,Bad,Yes,n,n,1,565
13,22,right,female,5,19,常人,S.bmp,Bad,No,m,m,1,594
13,22,right,female,5,20,善人,T.bmp,Good,Yes,n,n,1,535
13,22,right,female,5,21,善人,C.bmp,Normal,No,m,,0,0
13,22,right,female,5,22,常人,T.bmp,Good,No,m,n,0,475
13,22,right,female,5,23,恶人,S.bmp,Bad,Yes,n,n,1,754
13,22,right,female,5,24,善人,T.bmp,Good,Yes,n,n,1,585
13,22,right,female,5,25,恶人,C.bmp,Normal,No,m,m,1,655
13,22,right,female,5,26,恶人,S.bmp,Bad,Yes,n,n,1,724
13,22,right,female,5,27,常人,S.bmp,Bad,No,m,m,1,718
13,22,right,female,5,28,常人,C.bmp,Normal,Yes,n,,0,0
13,22,right,female,5,29,善人,T.bmp,Good,Yes,n,,0,0
13,22,right,female,5,30,常人,T.bmp,Good,No,m,,0,0
13,22,right,female,5,31,常人,C.bmp,Normal,Yes,n,m,0,657
13,22,right,female,5,32,恶人,T.bmp,Good,No,m,m,1,712
13,22,right,female,5,33,恶人,S.bmp,Bad,Yes,n,n,1,803
13,22,right,female,5,34,善人,T.bmp,Good,Yes,n,n,1,735
13,22,right,female,5,35,善人,S.bmp,Bad,No,m,m,1,505
13,22,right,female,5,36,善人,C.bmp,Normal,No,m,n,0,460
13,22,right,female,5,37,恶人,S.bmp,Bad,Yes,n,m,0,532
13,22,right,female,5,38,善人,T.bmp,Good,Yes,n,n,1,411
13,22,right,female,5,39,恶人,C.bmp,Normal,No,m,m,1,687
13,22,right,female,5,40,善人,S.bmp,Bad,No,m,n,0,776
13,22,right,female,5,41,恶人,S.bmp,Bad,Yes,n,n,1,598
13,22,right,female,5,42,常人,C.bmp,Normal,Yes,n,m,0,804
13,22,right,female,5,43,恶人,T.bmp,Good,No,m,m,1,770
13,22,right,female,5,44,常人,T.bmp,Good,No,m,n,0,399
13,22,right,female,5,45,善人,T.bmp,Good,Yes,n,n,1,881
13,22,right,female,5,46,善人,C.bmp,Normal,No,m,m,1,798
13,22,right,female,5,47,常人,C.bmp,Normal,Yes,n,n,1,656
13,22,right,female,5,48,常人,S.bmp,Bad,No,m,m,1,558
13,22,right,female,5,49,常人,T.bmp,Good,No,m,m,1,711
13,22,right,female,5,50,善人,S.bmp,Bad,No,m,n,0,535
13,22,right,female,5,51,常人,S.bmp,Bad,No,m,m,1,759
13,22,right,female,5,52,善人,T.bmp,Good,Yes,n,n,1,536
13,22,right,female,5,53,善人,C.bmp,Normal,No,m,m,1,625
13,22,right,female,5,54,恶人,C.bmp,Normal,No,m,n,0,767
13,22,right,female,5,55,恶人,S.bmp,Bad,Yes,n,n,1,669
13,22,right,female,5,56,恶人,S.bmp,Bad,Yes,n,m,0,558
13,22,right,female,5,57,常人,C.bmp,Normal,Yes,n,n,1,829
13,22,right,female,5,58,善人,T.bmp,Good,Yes,n,n,1,480
13,22,right,female,5,59,常人,C.bmp,Normal,Yes,n,n,1,938
13,22,right,female,5,60,恶人,T.bmp,Good,No,m,m,1,480
13,22,right,female,6,1,恶人,T.bmp,Good,No,m,m,1,711
13,22,right,female,6,2,恶人,S.bmp,Bad,Yes,n,n,1,674
13,22,right,female,6,3,恶人,S.bmp,Bad,Yes,n,n,1,683
13,22,right,female,6,4,善人,C.bmp,Normal,No,m,m,1,750
13,22,right,female,6,5,常人,C.bmp,Normal,Yes,n,n,1,653
13,22,right,female,6,6,常人,C.bmp,Normal,Yes,n,n,1,823
13,22,right,female,6,7,常人,T.bmp,Good,No,m,m,1,683
13,22,right,female,6,8,恶人,C.bmp,Normal,No,m,m,1,859
13,22,right,female,6,9,常人,S.bmp,Bad,No,m,n,0,575
13,22,right,female,6,10,善人,T.bmp,Good,Yes,n,n,1,483
13,22,right,female,6,11,善人,T.bmp,Good,Yes,n,n,1,502
13,22,right,female,6,12,善人,S.bmp,Bad,No,m,m,1,533
13,22,right,female,6,13,常人,C.bmp,Normal,Yes,n,m,0,580
13,22,right,female,6,14,恶人,S.bmp,Bad,Yes,n,n,1,641
13,22,right,female,6,15,恶人,T.bmp,Good,No,m,m,1,607
13,22,right,female,6,16,善人,T.bmp,Good,Yes,n,n,1,562
13,22,right,female,6,17,常人,T.bmp,Good,No,m,m,1,637
13,22,right,female,6,18,恶人,S.bmp,Bad,Yes,n,n,1,590
13,22,right,female,6,19,常人,C.bmp,Normal,Yes,n,n,1,814
13,22,right,female,6,20,善人,S.bmp,Bad,No,m,m,1,682
13,22,right,female,6,21,善人,C.bmp,Normal,No,m,m,1,713
13,22,right,female,6,22,常人,S.bmp,Bad,No,m,n,0,791
13,22,right,female,6,23,善人,T.bmp,Good,Yes,n,n,1,654
13,22,right,female,6,24,恶人,C.bmp,Normal,No,m,m,1,557
13,22,right,female,6,25,恶人,S.bmp,Bad,Yes,n,n,1,563
13,22,right,female,6,26,善人,S.bmp,Bad,No,m,m,1,671
13,22,right,female,6,27,善人,T.bmp,Good,Yes,n,n,1,654
13,22,right,female,6,28,恶人,S.bmp,Bad,Yes,n,n,1,838
13,22,right,female,6,29,常人,C.bmp,Normal,Yes,n,m,0,558
13,22,right,female,6,30,恶人,C.bmp,Normal,No,m,m,1,711
13,22,right,female,6,31,善人,T.bmp,Good,Yes,n,n,1,459
13,22,right,female,6,32,常人,C.bmp,Normal,Yes,n,m,0,805
13,22,right,female,6,33,恶人,T.bmp,Good,No,m,m,1,1097
13,22,right,female,6,34,常人,T.bmp,Good,No,m,m,1,742
13,22,right,female,6,35,常人,S.bmp,Bad,No,m,n,0,381
13,22,right,female,6,36,善人,C.bmp,Normal,No,m,m,1,863
13,22,right,female,6,37,恶人,T.bmp,Good,No,m,m,1,734
13,22,right,female,6,38,善人,T.bmp,Good,Yes,n,n,1,488
13,22,right,female,6,39,常人,T.bmp,Good,No,m,m,1,812
13,22,right,female,6,40,常人,C.bmp,Normal,Yes,n,n,1,642
13,22,right,female,6,41,恶人,C.bmp,Normal,No,m,m,1,784
13,22,right,female,6,42,恶人,S.bmp,Bad,Yes,n,m,0,800
13,22,right,female,6,43,恶人,S.bmp,Bad,Yes,n,m,0,576
13,22,right,female,6,44,常人,C.bmp,Normal,Yes,n,n,1,566
13,22,right,female,6,45,善人,C.bmp,Normal,No,m,n,0,602
13,22,right,female,6,46,善人,S.bmp,Bad,No,m,m,1,693
13,22,right,female,6,47,善人,T.bmp,Good,Yes,n,n,1,660
13,22,right,female,6,48,常人,S.bmp,Bad,No,m,m,1,545
13,22,right,female,6,49,善人,T.bmp,Good,Yes,n,n,1,299
13,22,right,female,6,50,善人,T.bmp,Good,Yes,n,n,1,383
13,22,right,female,6,51,善人,C.bmp,Normal,No,m,m,1,537
13,22,right,female,6,52,恶人,C.bmp,Normal,No,m,m,1,626
13,22,right,female,6,53,常人,S.bmp,Bad,No,m,m,1,796
13,22,right,female,6,54,常人,C.bmp,Normal,Yes,n,m,0,645
13,22,right,female,6,55,恶人,S.bmp,Bad,Yes,n,m,0,612
13,22,right,female,6,56,恶人,T.bmp,Good,No,m,m,1,754
13,22,right,female,6,57,善人,S.bmp,Bad,No,m,n,0,461
13,22,right,female,6,58,恶人,S.bmp,Bad,Yes,n,m,0,843
13,22,right,female,6,59,常人,C.bmp,Normal,Yes,n,n,1,756
13,22,right,female,6,60,常人,T.bmp,Good,No,m,m,1,659
14,18,right,female,,1,善人,S.bmp,Good,Yes,m,,0,0
14,18,right,female,,2,恶人,C.bmp,Bad,Yes,m,m,1,642
14,18,right,female,,3,常人,C.bmp,Bad,No,n,,0,0
14,18,right,female,,4,恶人,C.bmp,Bad,Yes,m,m,1,669
14,18,right,female,,5,常人,T.bmp,Normal,Yes,m,n,0,697
14,18,right,female,,6,常人,S.bmp,Good,No,n,m,0,605
14,18,right,female,,7,善人,T.bmp,Normal,No,n,m,0,949
14,18,right,female,,8,恶人,S.bmp,Good,No,n,,0,0
14,18,right,female,,9,恶人,T.bmp,Normal,No,n,n,1,941
14,18,right,female,,10,善人,S.bmp,Good,Yes,m,m,1,890
14,18,right,female,,11,善人,C.bmp,Bad,No,n,n,1,808
14,18,right,female,,12,常人,T.bmp,Normal,Yes,m,m,1,792
14,18,right,female,1,1,善人,T.bmp,Normal,No,n,n,1,710
14,18,right,female,1,2,恶人,T.bmp,Normal,No,n,n,1,811
14,18,right,female,1,3,恶人,C.bmp,Bad,Yes,m,m,1,899
14,18,right,female,1,4,常人,S.bmp,Good,No,n,m,0,443
14,18,right,female,1,5,善人,C.bmp,Bad,No,n,n,1,1044
14,18,right,female,1,6,恶人,S.bmp,Good,No,n,n,1,751
14,18,right,female,1,7,善人,S.bmp,Good,Yes,m,m,1,668
14,18,right,female,1,8,常人,T.bmp,Normal,Yes,m,n,0,749
14,18,right,female,1,9,恶人,C.bmp,Bad,Yes,m,m,1,177
14,18,right,female,1,10,善人,S.bmp,Good,Yes,m,m,1,876
14,18,right,female,1,11,常人,T.bmp,Normal,Yes,m,n,0,852
14,18,right,female,1,12,常人,C.bmp,Bad,No,n,,0,0
14,18,right,female,1,13,常人,T.bmp,Normal,Yes,m,n,0,913
