Subject,Age,Handedness,Sex,BlockList,TrialList1,SubTrial,Label,Shape,Target,YesNoResp,Target1.ACC,Target1.CRESP,Target1.RESP,Target1.RT
15,25,right,female,,,1,,,,No,,,,
15,25,right,female,,,2,,,,Yes,,,,
15,25,right,female,,,3,,,,No,,,,
15,25,right,female,,,1,好人,Self,,Yes,,,,
15,25,right,female,,,2,好人,Self,,No,,,,
15,25,right,female,,,3,好人,Self,,Yes,,,,
15,25,right,female,,,4,坏人,Self,,No,,,,
15,25,right,female,,,5,坏人,Self,,No,,,,
15,25,right,female,,,6,坏人,Self,,Yes,,,,
15,25,right,female,,,7,坏人,Self,,Yes,,,,
15,25,right,female,,,8,坏人,Self,,Yes,,,,
15,25,right,female,,,9,坏人,Self,,No,,,,
15,25,right,female,,,10,常人,Good,,Yes,,,,
15,25,right,female,,,11,好人,Self,,No,,,,
15,25,right,female,,,12,常人,Bad,,No,,,,
15,25,right,female,,,13,好人,Bad,,No,,,,
15,25,right,female,,,14,常人,Normal,,Yes,,,,
15,25,right,female,,,15,好人,Self,,No,,,,
15,25,right,female,,,16,常人,Bad,,No,,,,
15,25,right,female,,,17,常人,Normal,,No,,,,
15,25,right,female,,,18,常人,Normal,,Yes,,,,
15,25,right,female,,,19,常人,Good,,Yes,,,,
15,25,right,female,,,20,好人,Self,,Yes,,,,
15,25,right,female,,,21,常人,Good,,No,,,,
15,25,right,female,,,22,坏人,Self,,No,,,,
15,25,right,female,,,23,坏人,Self,,Yes,,,,
15,25,right,female,,,24,好人,Self,,Yes,,,,
15,25,right,female,,,1,张伟,Good,S.bmp,No,0,n,,0
15,25,right,female,,,2,李明,Bad,C.bmp,Yes,0,m,,0
15,25,right,female,,,3,王刚,Bad,C.bmp,No,0,n,,0
15,25,right,female,,,4,张伟,Normal,T.bmp,Yes,0,m,,0
15,25,right,female,,,5,张伟,Bad,C.bmp,No,0,n,,0
15,25,right,female,,,6,王刚,Normal,T.bmp,No,0,n,,0
15,25,right,female,,,7,张伟,Normal,T.bmp,Yes,0,m,n,506
15,25,right,female,,,8,李明,Bad,C.bmp,Yes,0,m,,0
15,25,right,female,,,9,李明,Good,S.bmp,No,0,n,m,938
15,25,right,female,,,10,王刚,Good,S.bmp,Yes,0,m,,0
15,25,right,female,,,11,王刚,Good,S.bmp,Yes,0,m,,0
15,25,right,female,,,12,李明,Normal,T.bmp,No,0,n,,0
15,25,right,female,,,13,李明,Good,S.bmp,No,1,n,n,906
15,25,right,female,,,14,张伟,Normal,T.bmp,Yes,0,m,n,1011
15,25,right,female,,,15,王刚,Good,S.bmp,Yes,0,m,,0
15,25,right,female,,,16,王刚,Good,S.bmp,Yes,1,m,m,971
15,25,right,female,,,17,李明,Bad,C.bmp,Yes,1,m,m,1083
15,25,right,female,,,18,张伟,Good,S.bmp,No,0,n,,0
15,25,right,female,,,19,王刚,Bad,C.bmp,No,0,n,,0
15,25,right,female,,,20,李明,Normal,T.bmp,No,0,n,,0
15,25,right,female,,,21,李明,Bad,C.bmp,Yes,0,m,n,972
15,25,right,female,,,22,王刚,Normal,T.bmp,No,0,n,m,956
15,25,right,female,,,23,张伟,Normal,T.bmp,Yes,0,m,,0
15,25,right,female,,,24,张伟,Bad,C.bmp,No,0,n,m,27
15,25,right,female,,,25,李明,Normal,T.bmp,No,0,n,m,995
15,25,right,female,,,26,李明,Good,S.bmp,No,1,n,n,1051
15,25,right,female,,,27,李明,Bad,C.bmp,Yes,0,m,,0
15,25,right,female,,,28,张伟,Good,S.bmp,No,1,n,n,987
15,25,right,female,,,29,王刚,Normal,T.bmp,No,1,n,n,755
15,25,right,female,,,30,王刚,Good,S.bmp,Yes,1,m,m,780
15,25,right,female,,,31,王刚,Bad,C.bmp,No,1,n,n,772
15,25,right,female,,,32,李明,Bad,C.bmp,Yes,1,m,m,876
15,25,right,female,,,33,张伟,Normal,T.bmp,Yes,1,m,m,724
15,25,right,female,,,34,张伟,Bad,C.bmp,No,1,n,n,732
15,25,right,female,,,35,王刚,Good,S.bmp,Yes,1,m,m,628
15,25,right,female,,,36,张伟,Normal,T.bmp,Yes,0,m,n,629
15,25,right,female,,,37,张伟,Normal,T.bmp,Yes,1,m,m,725
15,25,right,female,,,38,李明,Bad,C.bmp,Yes,1,m,m,732
15,25,right,female,,,39,王刚,Normal,T.bmp,No,0,n,m,653
15,25,right,female,,,40,张伟,Normal,T.bmp,Yes,1,m,m,788
15,25,right,female,,,41,张伟,Bad,C.bmp,No,1,n,n,1028
15,25,right,female,,,42,王刚,Good,S.bmp,Yes,1,m,m,684
15,25,right,female,,,43,王刚,Bad,C.bmp,No,1,n,n,877
15,25,right,female,,,44,李明,Normal,T.bmp,No,0,n,m,973
15,25,right,female,,,45,李明,Bad,C.bmp,Yes,0,m,n,1085
15,25,right,female,,,46,王刚,Good,S.bmp,Yes,1,m,m,877
15,25,right,female,,,47,李明,Good,S.bmp,No,0,n,m,1045
15,25,right,female,,,48,张伟,Good,S.bmp,No,0,n,m,933
15,25,right,female,,,49,张伟,Bad,C.bmp,No,1,n,n,838
15,25,right,female,,,50,张伟,Normal,T.bmp,Yes,1,m,m,751
15,25,right,female,,,51,张伟,Good,S.bmp,No,1,n,n,679
15,25,right,female,,,52,李明,Normal,T.bmp,No,0,n,m,855
15,25,right,female,,,53,李明,Bad,C.bmp,Yes,1,m,m,695
15,25,right,female,,,54,王刚,Good,S.bmp,Yes,1,m,m,847
15,25,right,female,,,55,王刚,Normal,T.bmp,No,1,n,n,655
15,25,right,female,,,56,李明,Good,S.bmp,No,0,n,m,696
15,25,right,female,,,57,李明,Bad,C.bmp,Yes,1,m,m,888
15,25,right,female,,,58,王刚,Good,S.bmp,Yes,1,m,m,1000
15,25,right,female,,,59,张伟,Normal,T.bmp,Yes,1,m,m,720
15,25,right,female,,,60,王刚,Bad,C.bmp,No,1,n,n,672
15,25,right,female,,,61,李明,Good,S.bmp,No,0,n,m,984
15,25,right,female,,,62,张伟,Normal,T.bmp,Yes,1,m,m,648
15,25,right,female,,,63,王刚,Good,S.bmp,Yes,1,m,m,801
15,25,right,female,,,64,李明,Bad,C.bmp,Yes,1,m,m,593
15,25,right,female,,,65,张伟,Normal,T.bmp,Yes,1,m,m,625
15,25,right,female,,,66,李明,Normal,T.bmp,No,1,n,n,969
15,25,right,female,,,67,王刚,Bad,C.bmp,No,0,n,m,864
15,25,right,female,,,68,李明,Bad,C.bmp,Yes,1,m,m,688
15,25,right,female,,,69,王刚,Good,S.bmp,Yes,1,m,m,577
15,25,right,female,,,70,王刚,Normal,T.bmp,No,1,n,n,785
15,25,right,female,,,71,张伟,Bad,C.bmp,No,1,n,n,921
15,25,right,female,,,72,张伟,Good,S.bmp,No,1,n,n,713
15,25,right,female,1,1,1,王刚,Good,S.bmp,Yes,1,m,m,1072
15,25,right,female,1,2,2,王刚,Bad,C.bmp,No,1,n,n,752
15,25,right,female,1,4,3,李明,Bad,C.bmp,Yes,1,m,m,912
15,25,right,female,1,9,4,张伟,Bad,C.bmp,No,1,n,n,736
15,25,right,female,1,8,5,张伟,Good,S.bmp,No,0,n,m,696
15,25,right,female,1,4,6,李明,Bad,C.bmp,Yes,1,m,m,961
15,25,right,female,1,1,7,王刚,Good,S.bmp,Yes,1,m,m,641
15,25,right,female,1,5,8,李明,Good,S.bmp,No,1,n,n,937
15,25,right,female,1,7,9,张伟,Normal,T.bmp,Yes,1,m,m,609
15,25,right,female,1,6,10,李明,Normal,T.bmp,No,1,n,n,777
15,25,right,female,1,7,11,张伟,Normal,T.bmp,Yes,1,m,m,721
15,25,right,female,1,3,12,王刚,Normal,T.bmp,No,1,n,n,665
15,25,right,female,1,3,13,王刚,Normal,T.bmp,No,1,n,n,658
15,25,right,female,1,4,14,李明,Bad,C.bmp,Yes,1,m,m,666
15,25,right,female,1,8,15,张伟,Good,S.bmp,No,1,n,n,650
15,25,right,female,1,5,16,李明,Good,S.bmp,No,1,n,n,1034
15,25,right,female,1,6,17,李明,Normal,T.bmp,No,0,n,m,753
15,25,right,female,1,2,18,王刚,Bad,C.bmp,No,1,n,n,753
15,25,right,female,1,1,19,王刚,Good,S.bmp,Yes,0,m,n,642
15,25,right,female,1,1,20,王刚,Good,S.bmp,Yes,1,m,m,506
15,25,right,female,1,9,21,张伟,Bad,C.bmp,No,0,n,m,794
15,25,right,female,1,4,22,李明,Bad,C.bmp,Yes,1,m,m,874
15,25,right,female,1,7,23,张伟,Normal,T.bmp,Yes,1,m,m,706
15,25,right,female,1,7,24,张伟,Normal,T.bmp,Yes,1,m,m,594
15,25,right,female,1,8,25,张伟,Good,S.bmp,No,1,n,n,675
15,25,right,female,1,7,26,张伟,Normal,T.bmp,Yes,1,m,m,571
15,25,right,female,1,4,27,李明,Bad,C.bmp,Yes,1,m,m,875
15,25,right,female,1,7,28,张伟,Normal,T.bmp,Yes,1,m,m,771
15,25,right,female,1,1,29,王刚,Good,S.bmp,Yes,1,m,m,1003
15,25,right,female,1,2,30,王刚,Bad,C.bmp,No,1,n,n,619
15,25,right,female,1,1,31,王刚,Good,S.bmp,Yes,1,m,m,867
15,25,right,female,1,9,32,张伟,Bad,C.bmp,No,0,n,m,700
15,25,right,female,1,3,33,王刚,Normal,T.bmp,No,1,n,n,780
15,25,right,female,1,5,34,李明,Good,S.bmp,No,0,n,m,764
15,25,right,female,1,4,35,李明,Bad,C.bmp,Yes,1,m,m,652
15,25,right,female,1,6,36,李明,Normal,T.bmp,No,1,n,n,940
15,25,right,female,1,1,37,王刚,Good,S.bmp,Yes,0,m,,0
15,25,right,female,1,9,38,张伟,Bad,C.bmp,No,0,n,,0
15,25,right,female,1,7,39,张伟,Normal,T.bmp,Yes,1,m,m,717
15,25,right,female,1,5,40,李明,Good,S.bmp,No,0,n,m,749
15,25,right,female,1,2,41,王刚,Bad,C.bmp,No,1,n,n,845
15,25,right,female,1,7,42,张伟,Normal,T.bmp,Yes,1,m,m,524
15,25,right,female,1,4,43,李明,Bad,C.bmp,Yes,0,m,,0
15,25,right,female,1,1,44,王刚,Good,S.bmp,Yes,1,m,m,650
15,25,right,female,1,3,45,王刚,Normal,T.bmp,No,1,n,n,571
15,25,right,female,1,4,46,李明,Bad,C.bmp,Yes,1,m,m,1091
15,25,right,female,1,6,47,李明,Normal,T.bmp,No,1,n,n,619
15,25,right,female,1,8,48,张伟,Good,S.bmp,No,0,n,m,971
15,25,right,female,1,5,49,李明,Good,S.bmp,No,0,n,,0
15,25,right,female,1,1,50,王刚,Good,S.bmp,Yes,1,m,m,979
15,25,right,female,1,2,51,王刚,Bad,C.bmp,No,0,n,,0
15,25,right,female,1,6,52,李明,Normal,T.bmp,No,0,n,m,620
15,25,right,female,1,7,53,张伟,Normal,T.bmp,Yes,1,m,m,676
15,25,right,female,1,9,54,张伟,Bad,C.bmp,No,1,n,n,684
15,25,right,female,1,1,55,王刚,Good,S.bmp,Yes,1,m,m,916
15,25,right,female,1,8,56,张伟,Good,S.bmp,No,1,n,n,836
15,25,right,female,1,7,57,张伟,Normal,T.bmp,Yes,1,m,m,564
15,25,right,female,1,4,58,李明,Bad,C.bmp,Yes,0,m,n,669
15,25,right,female,1,3,59,王刚,Normal,T.bmp,No,0,n,m,789
15,25,right,female,1,4,60,李明,Bad,C.bmp,Yes,0,m,,0
15,25,right,female,1,7,1,张伟,Normal,T.bmp,Yes,1,m,m,658
15,25,right,female,1,7,2,张伟,Normal,T.bmp,Yes,1,m,m,594
15,25,right,female,1,1,3,王刚,Good,S.bmp,Yes,0,m,n,705
15,25,right,female,1,5,4,李明,Good,S.bmp,No,0,n,,0
15,25,right,female,1,6,5,李明,Normal,T.bmp,No,0,n,m,602
15,25,right,female,1,4,6,李明,Bad,C.bmp,Yes,1,m,m,770
15,25,right,female,1,3,7,王刚,Normal,T.bmp,No,1,n,n,1042
15,25,right,female,1,2,8,王刚,Bad,C.bmp,No,1,n,n,626
15,25,right,female,1,4,9,李明,Bad,C.bmp,Yes,1,m,m,866
15,25,right,female,1,8,10,张伟,Good,S.bmp,No,1,n,n,754
15,25,right,female,1,1,11,王刚,Good,S.bmp,Yes,0,m,,0
15,25,right,female,1,9,12,张伟,Bad,C.bmp,No,0,n,m,683
15,25,right,female,1,7,13,张伟,Normal,T.bmp,Yes,1,m,m,643
15,25,right,female,1,1,14,王刚,Good,S.bmp,Yes,0,m,n,771
15,25,right,female,1,3,15,王刚,Normal,T.bmp,No,0,n,m,651
15,25,right,female,1,8,16,张伟,Good,S.bmp,No,0,n,,0
15,25,right,female,1,7,17,张伟,Normal,T.bmp,Yes,1,m,m,626
15,25,right,female,1,1,18,王刚,Good,S.bmp,Yes,1,m,m,1010
15,25,right,female,1,4,19,李明,Bad,C.bmp,Yes,1,m,m,738
15,25,right,female,1,2,20,王刚,Bad,C.bmp,No,0,n,m,626
15,25,right,female,1,9,21,张伟,Bad,C.bmp,No,1,n,n,842
15,25,right,female,1,4,22,李明,Bad,C.bmp,Yes,1,m,m,810
15,25,right,female,1,6,23,李明,Normal,T.bmp,No,1,n,n,698
15,25,right,female,1,5,24,李明,Good,S.bmp,No,1,n,n,651
15,25,right,female,1,6,25,李明,Normal,T.bmp,No,1,n,n,715
15,25,right,female,1,4,26,李明,Bad,C.bmp,Yes,1,m,m,739
15,25,right,female,1,9,27,张伟,Bad,C.bmp,No,1,n,n,827
15,25,right,female,1,8,28,张伟,Good,S.bmp,No,1,n,n,771
15,25,right,female,1,1,29,王刚,Good,S.bmp,Yes,0,m,n,635
15,25,right,female,1,5,30,李明,Good,S.bmp,No,0,n,m,643
15,25,right,female,1,7,31,张伟,Normal,T.bmp,Yes,1,m,m,547
15,25,right,female,1,7,32,张伟,Normal,T.bmp,Yes,1,m,m,651
15,25,right,female,1,3,33,王刚,Normal,T.bmp,No,1,n,n,619
15,25,right,female,1,4,34,李明,Bad,C.bmp,Yes,1,m,m,731
15,25,right,female,1,1,35,王刚,Good,S.bmp,Yes,1,m,m,739
15,25,right,female,1,2,36,王刚,Bad,C.bmp,No,1,n,n,603
15,25,right,female,1,1,37,王刚,Good,S.bmp,Yes,0,m,n,564
15,25,right,female,1,4,38,李明,Bad,C.bmp,Yes,1,m,m,732
15,25,right,female,1,5,39,李明,Good,S.bmp,No,0,n,m,676
15,25,right,female,1,1,40,王刚,Good,S.bmp,Yes,1,m,m,628
15,25,right,female,1,9,41,张伟,Bad,C.bmp,No,1,n,n,732
15,25,right,female,1,2,42,王刚,Bad,C.bmp,No,1,n,n,636
15,25,right,female,1,7,43,张伟,Normal,T.bmp,Yes,1,m,m,621
15,25,right,female,1,7,44,张伟,Normal,T.bmp,Yes,1,m,m,485
15,25,right,female,1,6,45,李明,Normal,T.bmp,No,1,n,n,549
15,25,right,female,1,8,46,张伟,Good,S.bmp,No,1,n,n,861
15,25,right,female,1,4,47,李明,Bad,C.bmp,Yes,1,m,m,629
15,25,right,female,1,3,48,王刚,Normal,T.bmp,No,1,n,n,797
15,25,right,female,1,7,49,张伟,Normal,T.bmp,Yes,1,m,m,693
15,25,right,female,1,7,50,张伟,Normal,T.bmp,Yes,1,m,m,550
15,25,right,female,1,6,51,李明,Normal,T.bmp,No,1,n,n,734
15,25,right,female,1,4,52,李明,Bad,C.bmp,Yes,1,m,m,590
15,25,right,female,1,9,53,张伟,Bad,C.bmp,No,1,n,n,846
15,25,right,female,1,4,54,李明,Bad,C.bmp,Yes,1,m,m,558
15,25,right,female,1,1,55,王刚,Good,S.bmp,Yes,1,m,m,549
15,25,right,female,1,1,56,王刚,Good,S.bmp,Yes,1,m,m,406
15,25,right,female,1,5,57,李明,Good,S.bmp,No,1,n,n,662
15,25,right,female,1,3,58,王刚,Normal,T.bmp,No,0,n,m,510
15,25,right,female,1,8,59,张伟,Good,S.bmp,No,0,n,m,726
15,25,right,female,1,2,60,王刚,Bad,C.bmp,No,0,n,m,990
15,25,right,female,1,5,1,李明,Good,S.bmp,No,0,n,,0
15,25,right,female,1,3,2,王刚,Normal,T.bmp,No,0,n,,0
15,25,right,female,1,4,3,李明,Bad,C.bmp,Yes,0,m,,0
15,25,right,female,1,1,4,王刚,Good,S.bmp,Yes,1,m,m,970
15,25,right,female,1,6,5,李明,Normal,T.bmp,No,1,n,n,762
15,25,right,female,1,4,6,李明,Bad,C.bmp,Yes,0,m,n,746
15,25,right,female,1,2,7,王刚,Bad,C.bmp,No,0,n,m,562
15,25,right,female,1,7,8,张伟,Normal,T.bmp,Yes,1,m,m,554
15,25,right,female,1,7,9,张伟,Normal,T.bmp,Yes,1,m,m,531
15,25,right,female,1,8,10,张伟,Good,S.bmp,No,1,n,n,523
15,25,right,female,1,1,11,王刚,Good,S.bmp,Yes,1,m,m,643
15,25,right,female,1,9,12,张伟,Bad,C.bmp,No,1,n,n,955
15,25,right,female,1,1,13,王刚,Good,S.bmp,Yes,1,m,m,659
15,25,right,female,1,4,14,李明,Bad,C.bmp,Yes,0,m,n,547
15,25,right,female,1,9,15,张伟,Bad,C.bmp,No,0,n,m,482
15,25,right,female,1,1,16,王刚,Good,S.bmp,Yes,1,m,m,587
15,25,right,female,1,7,17,张伟,Normal,T.bmp,Yes,1,m,m,555
15,25,right,female,1,5,18,李明,Good,S.bmp,No,0,n,m,1019
15,25,right,female,1,2,19,王刚,Bad,C.bmp,No,0,n,,0
15,25,right,female,1,8,20,张伟,Good,S.bmp,No,0,n,m,547
15,25,right,female,1,4,21,李明,Bad,C.bmp,Yes,1,m,m,555
15,25,right,female,1,3,22,王刚,Normal,T.bmp,No,1,n,n,652
15,25,right,female,1,6,23,李明,Normal,T.bmp,No,1,n,n,620
15,25,right,female,1,7,24,张伟,Normal,T.bmp,Yes,1,m,m,572
15,25,right,female,1,1,25,王刚,Good,S.bmp,Yes,0,m,n,716
15,25,right,female,1,5,26,李明,Good,S.bmp,No,0,n,,0
15,25,right,female,1,3,27,王刚,Normal,T.bmp,No,0,n,m,620
15,25,right,female,1,7,28,张伟,Normal,T.bmp,Yes,0,m,,0
15,25,right,female,1,8,29,张伟,Good,S.bmp,No,0,n,,0
15,25,right,female,1,9,30,张伟,Bad,C.bmp,No,0,n,,0
15,25,right,female,1,1,31,王刚,Good,S.bmp,Yes,0,m,,0
15,25,right,female,1,7,32,张伟,Normal,T.bmp,Yes,1,m,m,659
15,25,right,female,1,2,33,王刚,Bad,C.bmp,No,0,n,m,827
15,25,right,female,1,4,34,李明,Bad,C.bmp,Yes,0,m,n,931
15,25,right,female,1,6,35,李明,Normal,T.bmp,No,0,n,,0
15,25,right,female,1,4,36,李明,Bad,C.bmp,Yes,0,m,n,932
15,25,right,female,1,6,37,李明,Normal,T.bmp,No,1,n,n,956
15,25,right,female,1,4,38,李明,Bad,C.bmp,Yes,1,m,m,756
15,25,right,female,1,7,39,张伟,Normal,T.bmp,Yes,1,m,m,540
15,25,right,female,1,8,40,张伟,Good,S.bmp,No,1,n,n,692
15,25,right,female,1,2,41,王刚,Bad,C.bmp,No,0,n,m,853
15,25,right,female,1,5,42,李明,Good,S.bmp,No,0,n,m,636
15,25,right,female,1,1,43,王刚,Good,S.bmp,Yes,1,m,m,684
15,25,right,female,1,4,44,李明,Bad,C.bmp,Yes,1,m,m,524
15,25,right,female,1,1,45,王刚,Good,S.bmp,Yes,1,m,m,724
15,25,right,female,1,9,46,张伟,Bad,C.bmp,No,1,n,n,708
15,25,right,female,1,3,47,王刚,Normal,T.bmp,No,1,n,n,692
15,25,right,female,1,7,48,张伟,Normal,T.bmp,Yes,1,m,m,597
15,25,right,female,1,4,49,李明,Bad,C.bmp,Yes,0,m,n,773
15,25,right,female,1,1,50,王刚,Good,S.bmp,Yes,1,m,m,597
15,25,right,female,1,4,51,李明,Bad,C.bmp,Yes,1,m,m,709
15,25,right,female,1,9,52,张伟,Bad,C.bmp,No,1,n,n,797
15,25,right,female,1,7,53,张伟,Normal,T.bmp,Yes,1,m,m,637
15,25,right,female,1,7,54,张伟,Normal,T.bmp,Yes,1,m,m,502
15,25,right,female,1,6,55,李明,Normal,T.bmp,No,1,n,n,566
15,25,right,female,1,8,56,张伟,Good,S.bmp,No,1,n,n,902
15,25,right,female,1,5,57,李明,Good,S.bmp,No,0,n,,0
15,25,right,female,1,2,58,王刚,Bad,C.bmp,No,0,n,m,950
15,25,right,female,1,3,59,王刚,Normal,T.bmp,No,1,n,n,934
15,25,right,female,1,1,60,王刚,Good,S.bmp,Yes,1,m,m,854
15,25,right,female,1,6,1,李明,Normal,T.bmp,No,1,n,n,660
15,25,right,female,1,4,2,李明,Bad,C.bmp,Yes,1,m,m,731
15,25,right,female,1,5,3,李明,Good,S.bmp,No,1,n,n,859
15,25,right,female,1,7,4,张伟,Normal,T.bmp,Yes,1,m,m,691
15,25,right,female,1,2,5,王刚,Bad,C.bmp,No,0,n,m,747
15,25,right,female,1,1,6,王刚,Good,S.bmp,Yes,1,m,m,547
15,25,right,female,1,1,7,王刚,Good,S.bmp,Yes,1,m,m,483
15,25,right,female,1,3,8,王刚,Normal,T.bmp,No,1,n,n,620
15,25,right,female,1,4,9,李明,Bad,C.bmp,Yes,1,m,m,780
15,25,right,female,1,8,10,张伟,Good,S.bmp,No,1,n,n,596
15,25,right,female,1,9,11,张伟,Bad,C.bmp,No,0,n,m,828
15,25,right,female,1,7,12,张伟,Normal,T.bmp,Yes,1,m,m,692
15,25,right,female,1,4,13,李明,Bad,C.bmp,Yes,1,m,m,812
15,25,right,female,1,2,14,王刚,Bad,C.bmp,No,1,n,n,693
15,25,right,female,1,6,15,李明,Normal,T.bmp,No,1,n,n,877
15,25,right,female,1,5,16,李明,Good,S.bmp,No,1,n,n,909
15,25,right,female,1,8,17,张伟,Good,S.bmp,No,0,n,m,637
15,25,right,female,1,7,18,张伟,Normal,T.bmp,Yes,1,m,m,485
15,25,right,female,1,9,19,张伟,Bad,C.bmp,No,1,n,n,557
15,25,right,female,1,1,20,王刚,Good,S.bmp,Yes,1,m,m,806
15,25,right,female,1,7,21,张伟,Normal,T.bmp,Yes,1,m,m,718
15,25,right,female,1,4,22,李明,Bad,C.bmp,Yes,1,m,m,862
15,25,right,female,1,1,23,王刚,Good,S.bmp,Yes,1,m,m,790
15,25,right,female,1,3,24,王刚,Normal,T.bmp,No,1,n,n,702
15,25,right,female,1,1,25,王刚,Good,S.bmp,Yes,1,m,m,686
15,25,right,female,1,7,26,张伟,Normal,T.bmp,Yes,1,m,m,870
15,25,right,female,1,1,27,王刚,Good,S.bmp,Yes,1,m,m,878
15,25,right,female,1,9,28,张伟,Bad,C.bmp,No,0,n,,0
15,25,right,female,1,5,29,李明,Good,S.bmp,No,0,n,m,654
15,25,right,female,1,4,30,李明,Bad,C.bmp,Yes,1,m,m,590
15,25,right,female,1,4,31,李明,Bad,C.bmp,Yes,1,m,m,622
15,25,right,female,1,3,32,王刚,Normal,T.bmp,No,1,n,n,958
15,25,right,female,1,2,33,王刚,Bad,C.bmp,No,1,n,n,919
15,25,right,female,1,8,34,张伟,Good,S.bmp,No,1,n,n,767
15,25,right,female,1,7,35,张伟,Normal,T.bmp,Yes,1,m,m,599
15,25,right,female,1,6,36,李明,Normal,T.bmp,No,1,n,n,863
15,25,right,female,1,9,37,张伟,Bad,C.bmp,No,0,n,m,583
15,25,right,female,1,2,38,王刚,Bad,C.bmp,No,0,n,m,759
15,25,right,female,1,6,39,李明,Normal,T.bmp,No,0,n,m,623
15,25,right,female,1,7,40,张伟,Normal,T.bmp,Yes,1,m,m,624
15,25,right,female,1,7,41,张伟,Normal,T.bmp,Yes,1,m,m,536
15,25,right,female,1,8,42,张伟,Good,S.bmp,No,1,n,n,672
15,25,right,female,1,4,43,李明,Bad,C.bmp,Yes,1,m,m,720
15,25,right,female,1,1,44,王刚,Good,S.bmp,Yes,1,m,m,584
15,25,right,female,1,4,45,李明,Bad,C.bmp,Yes,0,m,n,648
15,25,right,female,1,3,46,王刚,Normal,T.bmp,No,1,n,n,761
15,25,right,female,1,1,47,王刚,Good,S.bmp,Yes,1,m,m,761
15,25,right,female,1,5,48,李明,Good,S.bmp,No,1,n,n,1001
15,25,right,female,1,2,49,王刚,Bad,C.bmp,No,0,n,m,857
15,25,right,female,1,1,50,王刚,Good,S.bmp,Yes,1,m,m,569
15,25,right,female,1,9,51,张伟,Bad,C.bmp,No,1,n,n,785
15,25,right,female,1,4,52,李明,Bad,C.bmp,Yes,1,m,m,953
15,25,right,female,1,3,53,王刚,Normal,T.bmp,No,1,n,n,1034
15,25,right,female,1,5,54,李明,Good,S.bmp,No,0,n,m,833
15,25,right,female,1,6,55,李明,Normal,T.bmp,No,0,n,m,577
15,25,right,female,1,4,56,李明,Bad,C.bmp,Yes,1,m,m,529
15,25,right,female,1,7,57,张伟,Normal,T.bmp,Yes,1,m,m,601
15,25,right,female,1,7,58,张伟,Normal,T.bmp,Yes,1,m,m,641
15,25,right,female,1,8,59,张伟,Good,S.bmp,No,1,n,n,602
15,25,right,female,1,1,60,王刚,Good,S.bmp,Yes,1,m,m,682
15,25,right,female,1,1,1,王刚,Good,S.bmp,Yes,1,m,m,703
15,25,right,female,1,2,2,王刚,Bad,C.bmp,No,1,n,n,631
15,25,right,female,1,1,3,王刚,Good,S.bmp,Yes,1,m,m,615
15,25,right,female,1,7,4,张伟,Normal,T.bmp,Yes,1,m,m,591
15,25,right,female,1,9,5,张伟,Bad,C.bmp,No,1,n,n,583
15,25,right,female,1,3,6,王刚,Normal,T.bmp,No,1,n,n,776
15,25,right,female,1,8,7,张伟,Good,S.bmp,No,1,n,n,904
15,25,right,female,1,5,8,李明,Good,S.bmp,No,0,n,m,704
15,25,right,female,1,6,9,李明,Normal,T.bmp,No,1,n,n,720
15,25,right,female,1,4,10,李明,Bad,C.bmp,Yes,1,m,m,616
15,25,right,female,1,4,11,李明,Bad,C.bmp,Yes,1,m,m,808
15,25,right,female,1,7,12,张伟,Normal,T.bmp,Yes,1,m,m,681
15,25,right,female,1,8,13,张伟,Good,S.bmp,No,1,n,n,641
15,25,right,female,1,5,14,李明,Good,S.bmp,No,1,n,n,1024
15,25,right,female,1,1,15,王刚,Good,S.bmp,Yes,1,m,m,544
15,25,right,female,1,3,16,王刚,Normal,T.bmp,No,1,n,n,672
15,25,right,female,1,9,17,张伟,Bad,C.bmp,No,1,n,n,816
15,25,right,female,1,7,18,张伟,Normal,T.bmp,Yes,1,m,m,544
15,25,right,female,1,1,19,王刚,Good,S.bmp,Yes,1,m,m,673
15,25,right,female,1,4,20,李明,Bad,C.bmp,Yes,1,m,m,793
15,25,right,female,1,7,21,张伟,Normal,T.bmp,Yes,1,m,m,721
15,25,right,female,1,6,22,李明,Normal,T.bmp,No,1,n,n,833
15,25,right,female,1,2,23,王刚,Bad,C.bmp,No,0,n,m,817
15,25,right,female,1,4,24,李明,Bad,C.bmp,Yes,1,m,m,817
15,25,right,female,1,6,25,李明,Normal,T.bmp,No,1,n,n,762
15,25,right,female,1,7,26,张伟,Normal,T.bmp,Yes,1,m,m,746
15,25,right,female,1,5,27,李明,Good,S.bmp,No,1,n,n,1018
15,25,right,female,1,2,28,王刚,Bad,C.bmp,No,1,n,n,762
15,25,right,female,1,7,29,张伟,Normal,T.bmp,Yes,1,m,m,642
15,25,right,female,1,4,30,李明,Bad,C.bmp,Yes,1,m,m,962
15,25,right,female,1,9,31,张伟,Bad,C.bmp,No,1,n,n,762
15,25,right,female,1,4,32,李明,Bad,C.bmp,Yes,1,m,m,907
15,25,right,female,1,8,33,张伟,Good,S.bmp,No,1,n,n,1059
15,25,right,female,1,1,34,王刚,Good,S.bmp,Yes,1,m,m,627
15,25,right,female,1,3,35,王刚,Normal,T.bmp,No,1,n,n,763
15,25,right,female,1,1,36,王刚,Good,S.bmp,Yes,1,m,m,739
15,25,right,female,1,5,37,李明,Good,S.bmp,No,1,n,n,827
15,25,right,female,1,9,38,张伟,Bad,C.bmp,No,1,n,n,684
15,25,right,female,1,4,39,李明,Bad,C.bmp,Yes,1,m,m,828
15,25,right,female,1,7,40,张伟,Normal,T.bmp,Yes,1,m,m,676
15,25,right,female,1,7,41,张伟,Normal,T.bmp,Yes,1,m,m,555
15,25,right,female,1,1,42,王刚,Good,S.bmp,Yes,1,m,m,987
15,25,right,female,1,6,43,李明,Normal,T.bmp,No,1,n,n,707
15,25,right,female,1,2,44,王刚,Bad,C.bmp,No,1,n,n,732
15,25,right,female,1,4,45,李明,Bad,C.bmp,Yes,1,m,m,1028
15,25,right,female,1,8,46,张伟,Good,S.bmp,No,1,n,n,660
15,25,right,female,1,1,47,王刚,Good,S.bmp,Yes,1,m,m,756
15,25,right,female,1,3,48,王刚,Normal,T.bmp,No,1,n,n,628
15,25,right,female,1,2,49,王刚,Bad,C.bmp,No,1,n,n,964
15,25,right,female,1,4,50,李明,Bad,C.bmp,Yes,1,m,m,1076
15,25,right,female,1,9,51,张伟,Bad,C.bmp,No,1,n,n,821
15,25,right,female,1,6,52,李明,Normal,T.bmp,No,1,n,n,661
15,25,right,female,1,7,53,张伟,Normal,T.bmp,Yes,1,m,m,549
15,25,right,female,1,8,54,张伟,Good,S.bmp,No,1,n,n,677
15,25,right,female,1,3,55,王刚,Normal,T.bmp,No,1,n,n,629
15,25,right,female,1,1,56,王刚,Good,S.bmp,Yes,1,m,m,685
15,25,right,female,1,5,57,李明,Good,S.bmp,No,1,n,n,718
15,25,right,female,1,7,58,张伟,Normal,T.bmp,Yes,1,m,m,494
15,25,right,female,1,1,59,王刚,Good,S.bmp,Yes,0,m,n,694
15,25,right,female,1,4,60,李明,Bad,C.bmp,Yes,1,m,m,782
15,25,right,female,1,7,1,张伟,Normal,T.bmp,Yes,1,m,m,682
15,25,right,female,1,2,2,王刚,Bad,C.bmp,No,0,n,m,1098
15,25,right,female,1,1,3,王刚,Good,S.bmp,Yes,1,m,m,674
15,25,right,female,1,1,4,王刚,Good,S.bmp,Yes,1,m,m,667
15,25,right,female,1,3,5,王刚,Normal,T.bmp,No,1,n,n,643
15,25,right,female,1,8,6,张伟,Good,S.bmp,No,1,n,n,755
15,25,right,female,1,5,7,李明,Good,S.bmp,No,1,n,n,819
15,25,right,female,1,6,8,李明,Normal,T.bmp,No,1,n,n,819
15,25,right,female,1,7,9,张伟,Normal,T.bmp,Yes,1,m,m,587
15,25,right,female,1,4,10,李明,Bad,C.bmp,Yes,0,m,n,676
15,25,right,female,1,9,11,张伟,Bad,C.bmp,No,1,n,n,916
15,25,right,female,1,4,12,李明,Bad,C.bmp,Yes,1,m,m,1068
15,25,right,female,1,6,13,李明,Normal,T.bmp,No,1,n,n,788
15,25,right,female,1,2,14,王刚,Bad,C.bmp,No,1,n,n,724
15,25,right,female,1,7,15,张伟,Normal,T.bmp,Yes,1,m,m,580
15,25,right,female,1,5,16,李明,Good,S.bmp,No,1,n,n,604
15,25,right,female,1,1,17,王刚,Good,S.bmp,Yes,1,m,m,517
15,25,right,female,1,9,18,张伟,Bad,C.bmp,No,1,n,n,557
15,25,right,female,1,4,19,李明,Bad,C.bmp,Yes,1,m,m,797
15,25,right,female,1,7,20,张伟,Normal,T.bmp,Yes,1,m,m,557
15,25,right,female,1,4,21,李明,Bad,C.bmp,Yes,1,m,m,717
15,25,right,female,1,3,22,王刚,Normal,T.bmp,No,1,n,n,941
15,25,right,female,1,1,23,王刚,Good,S.bmp,Yes,1,m,m,734
15,25,right,female,1,8,24,张伟,Good,S.bmp,No,1,n,n,678
15,25,right,female,1,5,25,李明,Good,S.bmp,No,1,n,n,886
15,25,right,female,1,1,26,王刚,Good,S.bmp,Yes,0,m,n,645
15,25,right,female,1,1,27,王刚,Good,S.bmp,Yes,1,m,m,477
15,25,right,female,1,2,28,王刚,Bad,C.bmp,No,1,n,n,557
15,25,right,female,1,4,29,李明,Bad,C.bmp,Yes,1,m,m,725
15,25,right,female,1,9,30,张伟,Bad,C.bmp,No,1,n,n,638
15,25,right,female,1,4,31,李明,Bad,C.bmp,Yes,0,m,n,574
15,25,right,female,1,8,32,张伟,Good,S.bmp,No,1,n,n,630
15,25,right,female,1,7,33,张伟,Normal,T.bmp,Yes,1,m,m,446
15,25,right,female,1,6,34,李明,Normal,T.bmp,No,1,n,n,646
15,25,right,female,1,7,35,张伟,Normal,T.bmp,Yes,1,m,m,470
15,25,right,female,1,3,36,王刚,Normal,T.bmp,No,1,n,n,631
15,25,right,female,1,9,37,张伟,Bad,C.bmp,No,1,n,n,607
15,25,right,female,1,7,38,张伟,Normal,T.bmp,Yes,1,m,m,575
15,25,right,female,1,5,39,李明,Good,S.bmp,No,1,n,n,743
15,25,right,female,1,7,40,张伟,Normal,T.bmp,Yes,0,m,n,711
15,25,right,female,1,2,41,王刚,Bad,C.bmp,No,0,n,m,511
15,25,right,female,1,4,42,李明,Bad,C.bmp,Yes,1,m,m,759
15,25,right,female,1,8,43,张伟,Good,S.bmp,No,1,n,n,696
15,25,right,female,1,4,44,李明,Bad,C.bmp,Yes,1,m,m,984
15,25,right,female,1,3,45,王刚,Normal,T.bmp,No,1,n,n,616
15,25,right,female,1,1,46,王刚,Good,S.bmp,Yes,1,m,m,632
15,25,right,female,1,1,47,王刚,Good,S.bmp,Yes,1,m,m,528
15,25,right,female,1,6,48,李明,Normal,T.bmp,No,0,n,m,728
15,25,right,female,1,8,49,张伟,Good,S.bmp,No,1,n,n,793
15,25,right,female,1,7,50,张伟,Normal,T.bmp,Yes,1,m,m,537
15,25,right,female,1,4,51,李明,Bad,C.bmp,Yes,1,m,m,705
15,25,right,female,1,9,52,张伟,Bad,C.bmp,No,1,n,n,713
15,25,right,female,1,4,53,李明,Bad,C.bmp,Yes,1,m,m,744
15,25,right,female,1,6,54,李明,Normal,T.bmp,No,1,n,n,656
15,25,right,female,1,5,55,李明,Good,S.bmp,No,0,n,m,697
15,25,right,female,1,7,56,张伟,Normal,T.bmp,Yes,1,m,m,577
15,25,right,female,1,3,57,王刚,Normal,T.bmp,No,1,n,n,617
15,25,right,female,1,1,58,王刚,Good,S.bmp,Yes,1,m,m,561
15,25,right,female,1,1,59,王刚,Good,S.bmp,Yes,1,m,m,641
15,25,right,female,1,2,60,王刚,Bad,C.bmp,No,1,n,n,681
16,22,right,male,,,1,,,,No,,,,
16,22,right,male,,,2,,,,No,,,,
16,22,right,male,,,3,,,,Yes,,,,
16,22,right,male,,,1,常人,Normal,,Yes,,,,
16,22,right,male,,,2,好人,Self,,No,,,,
16,22,right,male,,,3,常人,Bad,,No,,,,
16,22,right,male,,,4,常人,Normal,,No,,,,
16,22,right,male,,,5,常人,Normal,,Yes,,,,
16,22,right,male,,,6,好人,Self,,Yes,,,,
16,22,right,male,,,7,常人,Good,,Yes,,,,
16,22,right,male,,,8,好人,Self,,Yes,,,,
16,22,right,male,,,9,坏人,Self,,Yes,,,,
16,22,right,male,,,10,坏人,Self,,No,,,,
16,22,right,male,,,11,坏人,Self,,No,,,,
16,22,right,male,,,12,常人,Good,,Yes,,,,
16,22,right,male,,,13,好人,Self,,No,,,,
16,22,right,male,,,14,常人,Good,,No,,,,
16,22,right,male,,,15,好人,Bad,,No,,,,
16,22,right,male,,,16,坏人,Self,,No,,,,
16,22,right,male,,,17,好人,Self,,No,,,,
16,22,right,male,,,18,坏人,Self,,No,,,,
16,22,right,male,,,19,坏人,Self,,Yes,,,,
16,22,right,male,,,20,坏人,Self,,Yes,,,,
16,22,right,male,,,21,坏人,Self,,Yes,,,,
16,22,right,male,,,22,好人,Self,,Yes,,,,
16,22,right,male,,,23,好人,Self,,Yes,,,,
16,22,right,male,,,24,常人,Bad,,No,,,,
16,22,right,male,,,25,坏人,Self,,Yes,,,,
16,22,right,male,,,26,常人,Good,,No,,,,
16,22,right,male,,,27,坏人,Self,,Yes,,,,
16,22,right,male,,,28,常人,Good,,Yes,,,,
16,22,right,male,,,29,坏人,Self,,No,,,,
16,22,right,male,,,30,常人,Normal,,No,,,,
16,22,right,male,,,31,常人,Bad,,No,,,,
16,22,right,male,,,32,坏人,Self,,Yes,,,,
16,22,right,male,,,33,好人,Self,,Yes,,,,
16,22,right,male,,,34,常人,Normal,,Yes,,,,
16,22,right,male,,,35,常人,Bad,,No,,,,
16,22,right,male,,,36,好人,Self,,No,,,,
16,22,right,male,,,37,坏人,Self,,No,,,,
16,22,right,male,,,38,好人,Self,,Yes,,,,
16,22,right,male,,,39,好人,Bad,,No,,,,
16,22,right,male,,,40,坏人,Self,,No,,,,
16,22,right,male,,,41,常人,Normal,,Yes,,,,
16,22,right,male,,,42,坏人,Self,,Yes,,,,
16,22,right,male,,,43,好人,Self,,No,,,,
16,22,right,male,,,44,好人,Self,,Yes,,,,
16,22,right,male,,,45,好人,Self,,Yes,,,,
16,22,right,male,,,46,常人,Good,,Yes,,,,
16,22,right,male,,,47,坏人,Self,,No,,,,
16,22,right,male,,,48,好人,Self,,No,,,,
16,22,right,male,,,49,坏人,Self,,No,,,,
16,22,right,male,,,50,坏人,Self,,No,,,,
16,22,right,male,,,51,常人,Bad,,No,,,,
16,22,right,male,,,52,好人,Self,,No,,,,
16,22,right,male,,,53,坏人,Self,,Yes,,,,
16,22,right,male,,,54,好人,Self,,No,,,,
16,22,right,male,,,55,好人,Self,,Yes,,,,
16,22,right,male,,,56,常人,Good,,Yes,,,,
16,22,right,male,,,57,常人,Normal,,Yes,,,,
16,22,right,male,,,58,好人,Self,,No,,,,
16,22,right,male,,,59,坏人,Self,,No,,,,
16,22,right,male,,,60,常人,Good,,No,,,,
16,22,right,male,,,61,坏人,Self,,Yes,,,,
16,22,right,male,,,62,常人,Bad,,No,,,,
16,22,right,male,,,63,坏人,Self,,No,,,,
16,22,right,male,,,64,好人,Self,,Yes,,,,
16,22,right,male,,,65,坏人,Self,,Yes,,,,
16,22,right,male,,,66,好人,Bad,,No,,,,
16,22,right,male,,,67,常人,Good,,Yes,,,,
16,22,right,male,,,68,常人,Normal,,Yes,,,,
16,22,right,male,,,69,好人,Self,,Yes,,,,
16,22,right,male,,,70,常人,Normal,,No,,,,
16,22,right,male,,,71,坏人,Self,,Yes,,,,
16,22,right,male,,,72,好人,Self,,Yes,,,,
16,22,right,male,,,73,常人,Good,,Yes,,,,
16,22,right,male,,,74,好人,Self,,No,,,,
16,22,right,male,,,75,常人,Bad,,No,,,,
16,22,right,male,,,76,坏人,Self,,Yes,,,,
16,22,right,male,,,77,坏人,Self,,No,,,,
16,22,right,male,,,78,坏人,Self,,Yes,,,,
16,22,right,male,,,79,好人,Self,,No,,,,
16,22,right,male,,,80,常人,Normal,,No,,,,
16,22,right,male,,,81,好人,Self,,No,,,,
16,22,right,male,,,82,好人,Self,,Yes,,,,
16,22,right,male,,,83,好人,Self,,Yes,,,,
16,22,right,male,,,84,好人,Self,,Yes,,,,
16,22,right,male,,,85,常人,Bad,,No,,,,
16,22,right,male,,,86,坏人,Self,,No,,,,
16,22,right,male,,,87,坏人,Self,,Yes,,,,
16,22,right,male,,,88,常人,Normal,,Yes,,,,
16,22,right,male,,,89,坏人,Self,,No,,,,
16,22,right,male,,,90,坏人,Self,,No,,,,
16,22,right,male,,,91,好人,Bad,,No,,,,
16,22,right,male,,,92,常人,Good,,Yes,,,,
16,22,right,male,,,93,坏人,Self,,Yes,,,,
16,22,right,male,,,94,常人,Good,,No,,,,
16,22,right,male,,,95,好人,Self,,Yes,,,,
16,22,right,male,,,96,常人,Normal,,Yes,,,,
16,22,right,male,,,1,王刚,Bad,T.bmp,Yes,0,n,,0
16,22,right,male,,,2,王刚,Normal,S.bmp,No,0,m,,0
16,22,right,male,,,3,李明,Normal,S.bmp,Yes,0,n,,0
16,22,right,male,,,4,李明,Good,C.bmp,No,0,m,,0
16,22,right,male,,,5,王刚,Bad,T.bmp,Yes,0,n,,0
16,22,right,male,,,6,张伟,Good,C.bmp,Yes,1,n,n,228
16,22,right,male,,,7,张伟,Good,C.bmp,Yes,0,n,,0
16,22,right,male,,,8,李明,Normal,S.bmp,Yes,1,n,n,531
16,22,right,male,,,9,王刚,Good,C.bmp,No,1,m,m,822
16,22,right,male,,,10,张伟,Bad,T.bmp,No,0,m,n,497
16,22,right,male,,,11,张伟,Normal,S.bmp,No,0,m,n,365
16,22,right,male,,,12,李明,Bad,T.bmp,No,0,m,n,544
16,22,right,male,,,13,王刚,Normal,S.bmp,No,1,m,m,172
16,22,right,male,,,14,张伟,Good,C.bmp,Yes,1,n,n,271
16,22,right,male,,,15,张伟,Normal,S.bmp,No,1,m,m,851
16,22,right,male,,,16,李明,Normal,S.bmp,Yes,1,n,n,374
16,22,right,male,,,17,王刚,Good,C.bmp,No,1,m,m,434
16,22,right,male,,,18,李明,Normal,S.bmp,Yes,1,n,n,349
16,22,right,male,,,19,李明,Good,C.bmp,No,0,m,n,368
16,22,right,male,,,20,张伟,Bad,T.bmp,No,1,m,m,420
16,22,right,male,,,21,李明,Bad,T.bmp,No,0,m,n,295
16,22,right,male,,,22,王刚,Bad,T.bmp,Yes,0,n,,0
16,22,right,male,,,23,张伟,Good,C.bmp,Yes,0,n,m,414
16,22,right,male,,,24,王刚,Bad,T.bmp,Yes,1,n,n,322
16,22,right,male,,,25,王刚,Bad,T.bmp,Yes,0,n,,0
16,22,right,male,,,26,张伟,Good,C.bmp,Yes,0,n,m,789
16,22,right,male,,,27,李明,Normal,S.bmp,Yes,1,n,n,848
16,22,right,male,,,28,张伟,Bad,T.bmp,No,1,m,m,412
16,22,right,male,,,29,张伟,Normal,S.bmp,No,1,m,m,423
16,22,right,male,,,30,李明,Bad,T.bmp,No,1,m,m,410
16,22,right,male,,,31,李明,Good,C.bmp,No,1,m,m,406
16,22,right,male,,,32,王刚,Normal,S.bmp,No,1,m,m,313
16,22,right,male,,,33,王刚,Bad,T.bmp,Yes,0,n,m,261
16,22,right,male,,,34,李明,Normal,S.bmp,Yes,0,n,m,312
16,22,right,male,,,35,王刚,Good,C.bmp,No,0,m,n,436
16,22,right,male,,,36,张伟,Good,C.bmp,Yes,0,n,m,295
16,22,right,male,,,37,张伟,Bad,T.bmp,No,1,m,m,346
16,22,right,male,,,38,王刚,Bad,T.bmp,Yes,0,n,m,286
16,22,right,male,,,39,李明,Good,C.bmp,No,1,m,m,321
16,22,right,male,,,40,张伟,Good,C.bmp,Yes,1,n,n,381
16,22,right,male,,,41,李明,Bad,T.bmp,No,0,m,n,352
16,22,right,male,,,42,王刚,Bad,T.bmp,Yes,1,n,n,972
16,22,right,male,,,43,王刚,Normal,S.bmp,No,0,m,n,655
16,22,right,male,,,44,张伟,Normal,S.bmp,No,0,m,,0
16,22,right,male,,,45,李明,Normal,S.bmp,Yes,0,n,,0
16,22,right,male,,,46,李明,Normal,S.bmp,Yes,0,n,m,811
16,22,right,male,,,47,王刚,Good,C.bmp,No,1,m,m,1054
16,22,right,male,,,48,张伟,Good,C.bmp,Yes,0,n,m,754
16,22,right,male,,,49,张伟,Good,C.bmp,Yes,1,n,n,812
16,22,right,male,,,50,李明,Good,C.bmp,No,1,m,m,738
16,22,right,male,,,51,王刚,Bad,T.bmp,Yes,1,n,n,611
16,22,right,male,,,52,王刚,Bad,T.bmp,Yes,1,n,n,479
16,22,right,male,,,53,张伟,Bad,T.bmp,No,1,m,m,674
16,22,right,male,,,54,张伟,Normal,S.bmp,No,1,m,m,1005
16,22,right,male,,,55,李明,Normal,S.bmp,Yes,0,n,m,769
16,22,right,male,,,56,王刚,Normal,S.bmp,No,1,m,m,780
16,22,right,male,,,57,王刚,Good,C.bmp,No,1,m,m,1080
16,22,right,male,,,58,张伟,Good,C.bmp,Yes,1,n,n,795
16,22,right,male,,,59,李明,Normal,S.bmp,Yes,1,n,n,935
16,22,right,male,,,60,李明,Bad,T.bmp,No,1,m,m,770
16,22,right,male,,,61,张伟,Good,C.bmp,Yes,1,n,n,709
16,22,right,male,,,62,王刚,Bad,T.bmp,Yes,0,n,m,649
16,22,right,male,,,63,张伟,Good,C.bmp,Yes,0,n,m,916
16,22,right,male,,,64,张伟,Normal,S.bmp,No,1,m,m,832
16,22,right,male,,,65,王刚,Good,C.bmp,No,1,m,m,827
16,22,right,male,,,66,张伟,Bad,T.bmp,No,0,m,n,583
16,22,right,male,,,67,李明,Normal,S.bmp,Yes,1,n,n,810
16,22,right,male,,,68,王刚,Normal,S.bmp,No,1,m,m,780
16,22,right,male,,,69,李明,Bad,T.bmp,No,1,m,m,984
16,22,right,male,,,70,王刚,Bad,T.bmp,Yes,1,n,n,939
16,22,right,male,,,71,李明,Normal,S.bmp,Yes,1,n,n,991
16,22,right,male,,,72,李明,Good,C.bmp,No,1,m,m,1010
16,22,right,male,1,4,1,王刚,Bad,T.bmp,Yes,1,n,n,1044
16,22,right,male,1,1,2,张伟,Good,C.bmp,Yes,1,n,n,687
16,22,right,male,1,5,3,王刚,Good,C.bmp,No,1,m,m,851
16,22,right,male,1,7,4,李明,Normal,S.bmp,Yes,1,n,n,806
16,22,right,male,1,1,5,张伟,Good,C.bmp,Yes,1,n,n,586
16,22,right,male,1,3,6,张伟,Normal,S.bmp,No,1,m,m,957
16,22,right,male,1,7,7,李明,Normal,S.bmp,Yes,1,n,n,633
16,22,right,male,1,4,8,王刚,Bad,T.bmp,Yes,1,n,n,836
16,22,right,male,1,8,9,李明,Good,C.bmp,No,0,m,,0
16,22,right,male,1,9,10,李明,Bad,T.bmp,No,1,m,m,728
16,22,right,male,1,2,11,张伟,Bad,T.bmp,No,1,m,m,1036
16,22,right,male,1,6,12,王刚,Normal,S.bmp,No,0,m,n,919
16,22,right,male,1,1,13,张伟,Good,C.bmp,Yes,1,n,n,698
16,22,right,male,1,6,14,王刚,Normal,S.bmp,No,1,m,m,982
16,22,right,male,1,8,15,李明,Good,C.bmp,No,0,m,n,705
16,22,right,male,1,7,16,李明,Normal,S.bmp,Yes,0,n,m,677
16,22,right,male,1,3,17,张伟,Normal,S.bmp,No,0,m,,0
16,22,right,male,1,4,18,王刚,Bad,T.bmp,Yes,1,n,n,715
16,22,right,male,1,1,19,张伟,Good,C.bmp,Yes,1,n,n,590
16,22,right,male,1,4,20,王刚,Bad,T.bmp,Yes,0,n,m,921
16,22,right,male,1,2,21,张伟,Bad,T.bmp,No,0,m,,0
16,22,right,male,1,5,22,王刚,Good,C.bmp,No,1,m,m,928
16,22,right,male,1,7,23,李明,Normal,S.bmp,Yes,1,n,n,660
16,22,right,male,1,9,24,李明,Bad,T.bmp,No,1,m,m,847
16,22,right,male,1,7,25,李明,Normal,S.bmp,Yes,0,n,,0
16,22,right,male,1,1,26,张伟,Good,C.bmp,Yes,1,n,n,590
16,22,right,male,1,4,27,王刚,Bad,T.bmp,Yes,1,n,n,817
16,22,right,male,1,9,28,李明,Bad,T.bmp,No,1,m,m,693
16,22,right,male,1,3,29,张伟,Normal,S.bmp,No,1,m,m,952
16,22,right,male,1,4,30,王刚,Bad,T.bmp,Yes,1,n,n,556
16,22,right,male,1,7,31,李明,Normal,S.bmp,Yes,1,n,n,1071
16,22,right,male,1,8,32,李明,Good,C.bmp,No,1,m,m,1011
16,22,right,male,1,6,33,王刚,Normal,S.bmp,No,1,m,m,854
16,22,right,male,1,1,34,张伟,Good,C.bmp,Yes,1,n,n,554
16,22,right,male,1,5,35,王刚,Good,C.bmp,No,1,m,m,653
16,22,right,male,1,2,36,张伟,Bad,T.bmp,No,0,m,n,512
16,22,right,male,1,3,37,张伟,Normal,S.bmp,No,0,m,n,764
16,22,right,male,1,2,38,张伟,Bad,T.bmp,No,1,m,m,791
16,22,right,male,1,9,39,李明,Bad,T.bmp,No,1,m,m,763
16,22,right,male,1,6,40,王刚,Normal,S.bmp,No,1,m,m,942
16,22,right,male,1,1,41,张伟,Good,C.bmp,Yes,1,n,n,490
16,22,right,male,1,4,42,王刚,Bad,T.bmp,Yes,1,n,n,573
16,22,right,male,1,5,43,王刚,Good,C.bmp,No,1,m,m,728
16,22,right,male,1,7,44,李明,Normal,S.bmp,Yes,1,n,n,891
16,22,right,male,1,8,45,李明,Good,C.bmp,No,0,m,n,462
16,22,right,male,1,4,46,王刚,Bad,T.bmp,Yes,1,n,n,690
16,22,right,male,1,7,47,李明,Normal,S.bmp,Yes,1,n,n,981
16,22,right,male,1,1,48,张伟,Good,C.bmp,Yes,0,n,m,801
16,22,right,male,1,1,49,张伟,Good,C.bmp,Yes,1,n,n,500
16,22,right,male,1,2,50,张伟,Bad,T.bmp,No,1,m,m,815
16,22,right,male,1,9,51,李明,Bad,T.bmp,No,0,m,,0
16,22,right,male,1,8,52,李明,Good,C.bmp,No,0,m,n,662
16,22,right,male,1,3,53,张伟,Normal,S.bmp,No,1,m,m,1066
16,22,right,male,1,4,54,王刚,Bad,T.bmp,Yes,1,n,n,693
16,22,right,male,1,1,55,张伟,Good,C.bmp,Yes,0,n,m,921
16,22,right,male,1,6,56,王刚,Normal,S.bmp,No,0,m,n,604
16,22,right,male,1,4,57,王刚,Bad,T.bmp,Yes,0,n,m,895
16,22,right,male,1,5,58,王刚,Good,C.bmp,No,0,m,n,715
16,22,right,male,1,7,59,李明,Normal,S.bmp,Yes,0,n,m,846
16,22,right,male,1,7,60,李明,Normal,S.bmp,Yes,1,n,n,418
16,22,right,male,1,7,1,李明,Normal,S.bmp,Yes,0,n,,0
16,22,right,male,1,4,2,王刚,Bad,T.bmp,Yes,1,n,n,683
16,22,right,male,1,2,3,张伟,Bad,T.bmp,No,1,m,m,718
16,22,right,male,1,9,4,李明,Bad,T.bmp,No,1,m,m,1040
16,22,right,male,1,1,5,张伟,Good,C.bmp,Yes,1,n,n,508
16,22,right,male,1,5,6,王刚,Good,C.bmp,No,1,m,m,679
16,22,right,male,1,3,7,张伟,Normal,S.bmp,No,1,m,m,1091
16,22,right,male,1,6,8,王刚,Normal,S.bmp,No,1,m,m,982
16,22,right,male,1,8,9,李明,Good,C.bmp,No,0,m,n,530
16,22,right,male,1,4,10,王刚,Bad,T.bmp,Yes,1,n,n,821
16,22,right,male,1,1,11,张伟,Good,C.bmp,Yes,1,n,n,768
16,22,right,male,1,7,12,李明,Normal,S.bmp,Yes,1,n,n,836
16,22,right,male,1,5,13,王刚,Good,C.bmp,No,1,m,m,759
16,22,right,male,1,4,14,王刚,Bad,T.bmp,Yes,1,n,n,595
16,22,right,male,1,4,15,王刚,Bad,T.bmp,Yes,1,n,n,542
16,22,right,male,1,7,16,李明,Normal,S.bmp,Yes,1,n,n,778
16,22,right,male,1,9,17,李明,Bad,T.bmp,No,1,m,m,781
16,22,right,male,1,1,18,张伟,Good,C.bmp,Yes,1,n,n,576
16,22,right,male,1,7,19,李明,Normal,S.bmp,Yes,1,n,n,828
16,22,right,male,1,1,20,张伟,Good,C.bmp,Yes,1,n,n,655
16,22,right,male,1,3,21,张伟,Normal,S.bmp,No,0,m,n,515
16,22,right,male,1,2,22,张伟,Bad,T.bmp,No,1,m,m,806
16,22,right,male,1,6,23,王刚,Normal,S.bmp,No,0,m,,0
16,22,right,male,1,8,24,李明,Good,C.bmp,No,0,m,n,885
16,22,right,male,1,7,25,李明,Normal,S.bmp,Yes,1,n,n,872
16,22,right,male,1,1,26,张伟,Good,C.bmp,Yes,1,n,n,500
16,22,right,male,1,5,27,王刚,Good,C.bmp,No,1,m,m,759
16,22,right,male,1,3,28,张伟,Normal,S.bmp,No,0,m,n,995
16,22,right,male,1,8,29,李明,Good,C.bmp,No,0,m,,0
16,22,right,male,1,4,30,王刚,Bad,T.bmp,Yes,1,n,n,777
16,22,right,male,1,2,31,张伟,Bad,T.bmp,No,1,m,m,796
16,22,right,male,1,6,32,王刚,Normal,S.bmp,No,0,m,,0
16,22,right,male,1,1,33,张伟,Good,C.bmp,Yes,1,n,n,595
16,22,right,male,1,7,34,李明,Normal,S.bmp,Yes,1,n,n,966
16,22,right,male,1,9,35,李明,Bad,T.bmp,No,1,m,m,778
16,22,right,male,1,4,36,王刚,Bad,T.bmp,Yes,1,n,n,893
16,22,right,male,1,4,37,王刚,Bad,T.bmp,Yes,1,n,n,425
16,22,right,male,1,3,38,张伟,Normal,S.bmp,No,1,m,m,1012
16,22,right,male,1,5,39,王刚,Good,C.bmp,No,0,m,n,495
16,22,right,male,1,6,40,王刚,Normal,S.bmp,No,0,m,n,931
16,22,right,male,1,8,41,李明,Good,C.bmp,No,0,m,n,622
16,22,right,male,1,1,42,张伟,Good,C.bmp,Yes,1,n,n,514
16,22,right,male,1,7,43,李明,Normal,S.bmp,Yes,0,n,m,957
16,22,right,male,1,2,44,张伟,Bad,T.bmp,No,1,m,m,353
16,22,right,male,1,9,45,李明,Bad,T.bmp,No,1,m,m,260
16,22,right,male,1,7,46,李明,Normal,S.bmp,Yes,0,n,m,151
16,22,right,male,1,4,47,王刚,Bad,T.bmp,Yes,0,n,m,3
16,22,right,male,1,1,48,张伟,Good,C.bmp,Yes,1,n,n,606
16,22,right,male,1,7,49,李明,Normal,S.bmp,Yes,0,n,m,770
16,22,right,male,1,3,50,张伟,Normal,S.bmp,No,0,m,n,509
16,22,right,male,1,4,51,王刚,Bad,T.bmp,Yes,1,n,n,561
16,22,right,male,1,7,52,李明,Normal,S.bmp,Yes,0,n,m,740
16,22,right,male,1,5,53,王刚,Good,C.bmp,No,0,m,n,463
16,22,right,male,1,4,54,王刚,Bad,T.bmp,Yes,0,n,m,899
16,22,right,male,1,1,55,张伟,Good,C.bmp,Yes,1,n,n,646
16,22,right,male,1,2,56,张伟,Bad,T.bmp,No,1,m,m,841
16,22,right,male,1,1,57,张伟,Good,C.bmp,Yes,1,n,n,700
16,22,right,male,1,8,58,李明,Good,C.bmp,No,0,m,n,480
16,22,right,male,1,9,59,李明,Bad,T.bmp,No,0,m,,0
16,22,right,male,1,6,60,王刚,Normal,S.bmp,No,1,m,m,982
16,22,right,male,1,7,1,李明,Normal,S.bmp,Yes,0,n,,0
16,22,right,male,1,6,2,王刚,Normal,S.bmp,No,1,m,m,791
16,22,right,male,1,3,3,张伟,Normal,S.bmp,No,1,m,m,1083
16,22,right,male,1,1,4,张伟,Good,C.bmp,Yes,1,n,n,966
16,22,right,male,1,2,5,张伟,Bad,T.bmp,No,1,m,m,858
16,22,right,male,1,8,6,李明,Good,C.bmp,No,1,m,m,981
16,22,right,male,1,4,7,王刚,Bad,T.bmp,Yes,1,n,n,640
16,22,right,male,1,4,8,王刚,Bad,T.bmp,Yes,1,n,n,540
16,22,right,male,1,9,9,李明,Bad,T.bmp,No,1,m,m,735
16,22,right,male,1,7,10,李明,Normal,S.bmp,Yes,1,n,n,955
16,22,right,male,1,5,11,王刚,Good,C.bmp,No,1,m,m,710
16,22,right,male,1,1,12,张伟,Good,C.bmp,Yes,1,n,n,706
16,22,right,male,1,1,13,张伟,Good,C.bmp,Yes,1,n,n,893
16,22,right,male,1,3,14,张伟,Normal,S.bmp,No,1,m,m,712
16,22,right,male,1,5,15,王刚,Good,C.bmp,No,1,m,m,756
16,22,right,male,1,6,16,王刚,Normal,S.bmp,No,0,m,n,734
16,22,right,male,1,4,17,王刚,Bad,T.bmp,Yes,0,n,m,882
16,22,right,male,1,7,18,李明,Normal,S.bmp,Yes,0,n,,0
16,22,right,male,1,1,19,张伟,Good,C.bmp,Yes,1,n,n,705
16,22,right,male,1,4,20,王刚,Bad,T.bmp,Yes,1,n,n,1076
16,22,right,male,1,2,21,张伟,Bad,T.bmp,No,1,m,m,879
16,22,right,male,1,9,22,李明,Bad,T.bmp,No,1,m,m,899
16,22,right,male,1,8,23,李明,Good,C.bmp,No,1,m,m,958
16,22,right,male,1,7,24,李明,Normal,S.bmp,Yes,0,n,m,850
16,22,right,male,1,5,25,王刚,Good,C.bmp,No,1,m,m,845
16,22,right,male,1,7,26,李明,Normal,S.bmp,Yes,0,n,m,1033
16,22,right,male,1,1,27,张伟,Good,C.bmp,Yes,0,n,m,380
16,22,right,male,1,3,28,张伟,Normal,S.bmp,No,1,m,m,511
16,22,right,male,1,2,29,张伟,Bad,T.bmp,No,1,m,m,875
16,22,right,male,1,9,30,李明,Bad,T.bmp,No,1,m,m,934
16,22,right,male,1,4,31,王刚,Bad,T.bmp,Yes,1,n,n,874
16,22,right,male,1,6,32,王刚,Normal,S.bmp,No,1,m,m,933
16,22,right,male,1,1,33,张伟,Good,C.bmp,Yes,1,n,n,633
16,22,right,male,1,8,34,李明,Good,C.bmp,No,1,m,m,700
16,22,right,male,1,7,35,李明,Normal,S.bmp,Yes,1,n,n,720
16,22,right,male,1,4,36,王刚,Bad,T.bmp,Yes,0,n,m,1043
16,22,right,male,1,6,37,王刚,Normal,S.bmp,No,0,m,n,694
16,22,right,male,1,5,38,王刚,Good,C.bmp,No,1,m,m,978
16,22,right,male,1,7,39,李明,Normal,S.bmp,Yes,1,n,n,965
16,22,right,male,1,4,40,王刚,Bad,T.bmp,Yes,1,n,n,865
16,22,right,male,1,4,41,王刚,Bad,T.bmp,Yes,1,n,n,500
16,22,right,male,1,1,42,张伟,Good,C.bmp,Yes,1,n,n,680
16,22,right,male,1,3,43,张伟,Normal,S.bmp,No,0,m,n,994
16,22,right,male,1,7,44,李明,Normal,S.bmp,Yes,0,n,m,685
16,22,right,male,1,9,45,李明,Bad,T.bmp,No,0,m,n,529
16,22,right,male,1,8,46,李明,Good,C.bmp,No,0,m,n,500
16,22,right,male,1,2,47,张伟,Bad,T.bmp,No,0,m,n,392
16,22,right,male,1,1,48,张伟,Good,C.bmp,Yes,1,n,n,827
16,22,right,male,1,7,49,李明,Normal,S.bmp,Yes,1,n,n,759
16,22,right,male,1,3,50,张伟,Normal,S.bmp,No,0,m,n,482
16,22,right,male,1,2,51,张伟,Bad,T.bmp,No,0,m,,0
16,22,right,male,1,4,52,王刚,Bad,T.bmp,Yes,1,n,n,641
16,22,right,male,1,8,53,李明,Good,C.bmp,No,0,m,,0
16,22,right,male,1,4,54,王刚,Bad,T.bmp,Yes,0,n,m,544
16,22,right,male,1,7,55,李明,Normal,S.bmp,Yes,1,n,n,339
16,22,right,male,1,9,56,李明,Bad,T.bmp,No,1,m,m,727
16,22,right,male,1,6,57,王刚,Normal,S.bmp,No,1,m,m,802
16,22,right,male,1,1,58,张伟,Good,C.bmp,Yes,0,n,m,309
16,22,right,male,1,5,59,王刚,Good,C.bmp,No,0,m,n,553
16,22,right,male,1,1,60,张伟,Good,C.bmp,Yes,1,n,n,428
16,22,right,male,1,3,1,张伟,Normal,S.bmp,No,1,m,m,138
16,22,right,male,1,5,2,王刚,Good,C.bmp,No,1,m,m,852
16,22,right,male,1,2,3,张伟,Bad,T.bmp,No,0,m,n,560
16,22,right,male,1,7,4,李明,Normal,S.bmp,Yes,1,n,n,683
16,22,right,male,1,4,5,王刚,Bad,T.bmp,Yes,1,n,n,574
16,22,right,male,1,1,6,张伟,Good,C.bmp,Yes,1,n,n,626
16,22,right,male,1,4,7,王刚,Bad,T.bmp,Yes,1,n,n,829
16,22,right,male,1,7,8,李明,Normal,S.bmp,Yes,1,n,n,617
16,22,right,male,1,9,9,李明,Bad,T.bmp,No,1,m,m,700
16,22,right,male,1,1,10,张伟,Good,C.bmp,Yes,1,n,n,600
16,22,right,male,1,8,11,李明,Good,C.bmp,No,1,m,m,851
16,22,right,male,1,6,12,王刚,Normal,S.bmp,No,1,m,m,878
16,22,right,male,1,9,13,李明,Bad,T.bmp,No,1,m,m,866
16,22,right,male,1,1,14,张伟,Good,C.bmp,Yes,1,n,n,533
16,22,right,male,1,2,15,张伟,Bad,T.bmp,No,0,m,n,665
16,22,right,male,1,4,16,王刚,Bad,T.bmp,Yes,1,n,n,876
16,22,right,male,1,8,17,李明,Good,C.bmp,No,0,m,n,1024
16,22,right,male,1,7,18,李明,Normal,S.bmp,Yes,1,n,n,947
16,22,right,male,1,3,19,张伟,Normal,S.bmp,No,1,m,m,982
16,22,right,male,1,6,20,王刚,Normal,S.bmp,No,1,m,m,842
16,22,right,male,1,7,21,李明,Normal,S.bmp,Yes,1,n,n,1029
16,22,right,male,1,4,22,王刚,Bad,T.bmp,Yes,1,n,n,553
16,22,right,male,1,1,23,张伟,Good,C.bmp,Yes,1,n,n,532
16,22,right,male,1,5,24,王刚,Good,C.bmp,No,1,m,m,640
16,22,right,male,1,1,25,张伟,Good,C.bmp,Yes,1,n,n,891
16,22,right,male,1,3,26,张伟,Normal,S.bmp,No,1,m,m,1006
16,22,right,male,1,6,27,王刚,Normal,S.bmp,No,0,m,n,970
16,22,right,male,1,5,28,王刚,Good,C.bmp,No,1,m,m,725
16,22,right,male,1,2,29,张伟,Bad,T.bmp,No,0,m,,0
16,22,right,male,1,9,30,李明,Bad,T.bmp,No,0,m,,0
16,22,right,male,1,4,31,王刚,Bad,T.bmp,Yes,0,n,,0
16,22,right,male,1,8,32,李明,Good,C.bmp,No,0,m,n,666
16,22,right,male,1,7,33,李明,Normal,S.bmp,Yes,1,n,n,773
16,22,right,male,1,1,34,张伟,Good,C.bmp,Yes,1,n,n,649
16,22,right,male,1,4,35,王刚,Bad,T.bmp,Yes,1,n,n,612
16,22,right,male,1,7,36,李明,Normal,S.bmp,Yes,0,n,,0
16,22,right,male,1,5,37,王刚,Good,C.bmp,No,1,m,m,803
16,22,right,male,1,8,38,李明,Good,C.bmp,No,1,m,m,807
16,22,right,male,1,1,39,张伟,Good,C.bmp,Yes,1,n,n,722
16,22,right,male,1,9,40,李明,Bad,T.bmp,No,1,m,m,845
16,22,right,male,1,4,41,王刚,Bad,T.bmp,Yes,1,n,n,745
16,22,right,male,1,2,42,张伟,Bad,T.bmp,No,1,m,m,1060
16,22,right,male,1,4,43,王刚,Bad,T.bmp,Yes,0,n,m,992
16,22,right,male,1,3,44,张伟,Normal,S.bmp,No,1,m,m,1043
16,22,right,male,1,7,45,李明,Normal,S.bmp,Yes,1,n,n,1031
16,22,right,male,1,1,46,张伟,Good,C.bmp,Yes,1,n,n,810
16,22,right,male,1,6,47,王刚,Normal,S.bmp,No,0,m,n,813
16,22,right,male,1,7,48,李明,Normal,S.bmp,Yes,1,n,n,393
16,22,right,male,1,4,49,王刚,Bad,T.bmp,Yes,1,n,n,748
16,22,right,male,1,7,50,李明,Normal,S.bmp,Yes,0,n,m,784
16,22,right,male,1,1,51,张伟,Good,C.bmp,Yes,1,n,n,491
16,22,right,male,1,5,52,王刚,Good,C.bmp,No,1,m,m,895
16,22,right,male,1,2,53,张伟,Bad,T.bmp,No,0,m,n,617
16,22,right,male,1,1,54,张伟,Good,C.bmp,Yes,1,n,n,452
16,22,right,male,1,4,55,王刚,Bad,T.bmp,Yes,1,n,n,712
16,22,right,male,1,3,56,张伟,Normal,S.bmp,No,0,m,,0
16,22,right,male,1,8,57,李明,Good,C.bmp,No,1,m,m,847
16,22,right,male,1,9,58,李明,Bad,T.bmp,No,1,m,m,866
16,22,right,male,1,6,59,王刚,Normal,S.bmp,No,0,m,,0
16,22,right,male,1,7,60,李明,Normal,S.bmp,Yes,1,n,n,577
16,22,right,male,1,5,1,王刚,Good,C.bmp,No,1,m,m,894
16,22,right,male,1,7,2,李明,Normal,S.bmp,Yes,1,n,n,922
16,22,right,male,1,6,3,王刚,Normal,S.bmp,No,1,m,m,981
16,22,right,male,1,1,4,张伟,Good,C.bmp,Yes,1,n,n,577
16,22,right,male,1,4,5,王刚,Bad,T.bmp,Yes,1,n,n,700
16,22,right,male,1,1,6,张伟,Good,C.bmp,Yes,1,n,n,752
16,22,right,male,1,7,7,李明,Normal,S.bmp,Yes,1,n,n,747
16,22,right,male,1,8,8,李明,Good,C.bmp,No,0,m,,0
16,22,right,male,1,3,9,张伟,Normal,S.bmp,No,1,m,m,786
16,22,right,male,1,2,10,张伟,Bad,T.bmp,No,1,m,m,933
16,22,right,male,1,9,11,李明,Bad,T.bmp,No,1,m,m,673
16,22,right,male,1,4,12,王刚,Bad,T.bmp,Yes,1,n,n,788
16,22,right,male,1,9,13,李明,Bad,T.bmp,No,1,m,m,920
16,22,right,male,1,7,14,李明,Normal,S.bmp,Yes,1,n,n,754
16,22,right,male,1,2,15,张伟,Bad,T.bmp,No,1,m,m,669
16,22,right,male,1,3,16,张伟,Normal,S.bmp,No,0,m,n,833
16,22,right,male,1,4,17,王刚,Bad,T.bmp,Yes,1,n,n,1012
16,22,right,male,1,4,18,王刚,Bad,T.bmp,Yes,0,n,m,832
16,22,right,male,1,1,19,张伟,Good,C.bmp,Yes,1,n,n,667
16,22,right,male,1,6,20,王刚,Normal,S.bmp,No,0,m,,0
16,22,right,male,1,7,21,李明,Normal,S.bmp,Yes,1,n,n,954
16,22,right,male,1,1,22,张伟,Good,C.bmp,Yes,1,n,n,541
16,22,right,male,1,8,23,李明,Good,C.bmp,No,0,m,,0
16,22,right,male,1,5,24,王刚,Good,C.bmp,No,0,m,n,852
16,22,right,male,1,8,25,李明,Good,C.bmp,No,1,m,m,744
16,22,right,male,1,7,26,李明,Normal,S.bmp,Yes,1,n,n,747
16,22,right,male,1,4,27,王刚,Bad,T.bmp,Yes,1,n,n,799
16,22,right,male,1,9,28,李明,Bad,T.bmp,No,0,m,n,474
16,22,right,male,1,2,29,张伟,Bad,T.bmp,No,1,m,m,781
16,22,right,male,1,1,30,张伟,Good,C.bmp,Yes,1,n,n,1097
16,22,right,male,1,1,31,张伟,Good,C.bmp,Yes,1,n,n,500
16,22,right,male,1,4,32,王刚,Bad,T.bmp,Yes,1,n,n,816
16,22,right,male,1,7,33,李明,Normal,S.bmp,Yes,1,n,n,859
16,22,right,male,1,3,34,张伟,Normal,S.bmp,No,1,m,m,1047
16,22,right,male,1,5,35,王刚,Good,C.bmp,No,1,m,m,906
16,22,right,male,1,6,36,王刚,Normal,S.bmp,No,1,m,m,782
16,22,right,male,1,4,37,王刚,Bad,T.bmp,Yes,1,n,n,665
16,22,right,male,1,1,38,张伟,Good,C.bmp,Yes,1,n,n,900
16,22,right,male,1,6,39,王刚,Normal,S.bmp,No,1,m,m,879
16,22,right,male,1,3,40,张伟,Normal,S.bmp,No,1,m,m,834
16,22,right,male,1,5,41,王刚,Good,C.bmp,No,1,m,m,1054
16,22,right,male,1,2,42,张伟,Bad,T.bmp,No,0,m,n,817
16,22,right,male,1,9,43,李明,Bad,T.bmp,No,1,m,m,973
16,22,right,male,1,4,44,王刚,Bad,T.bmp,Yes,0,n,m,576
16,22,right,male,1,1,45,张伟,Good,C.bmp,Yes,0,n,,0
16,22,right,male,1,8,46,李明,Good,C.bmp,No,1,m,m,39
16,22,right,male,1,7,47,李明,Normal,S.bmp,Yes,1,n,n,946
16,22,right,male,1,7,48,李明,Normal,S.bmp,Yes,1,n,n,590
16,22,right,male,1,1,49,张伟,Good,C.bmp,Yes,1,n,n,585
16,22,right,male,1,5,50,王刚,Good,C.bmp,No,1,m,m,733
16,22,right,male,1,9,51,李明,Bad,T.bmp,No,1,m,m,736
16,22,right,male,1,2,52,张伟,Bad,T.bmp,No,1,m,m,931
16,22,right,male,1,4,53,王刚,Bad,T.bmp,Yes,1,n,n,671
16,22,right,male,1,4,54,王刚,Bad,T.bmp,Yes,0,n,,0
16,22,right,male,1,8,55,李明,Good,C.bmp,No,0,m,n,694
16,22,right,male,1,7,56,李明,Normal,S.bmp,Yes,1,n,n,665
16,22,right,male,1,3,57,张伟,Normal,S.bmp,No,0,m,n,621
16,22,right,male,1,1,58,张伟,Good,C.bmp,Yes,1,n,n,928
16,22,right,male,1,6,59,王刚,Normal,S.bmp,No,1,m,m,763
16,22,right,male,1,7,60,李明,Normal,S.bmp,Yes,0,n,m,1063
16,22,right,male,1,1,1,张伟,Good,C.bmp,Yes,1,n,n,531
16,22,right,male,1,6,2,王刚,Normal,S.bmp,No,1,m,m,1015
16,22,right,male,1,7,3,李明,Normal,S.bmp,Yes,1,n,n,690
16,22,right,male,1,2,4,张伟,Bad,T.bmp,No,1,m,m,910
16,22,right,male,1,4,5,王刚,Bad,T.bmp,Yes,0,n,m,1017
16,22,right,male,1,3,6,张伟,Normal,S.bmp,No,0,m,n,628
16,22,right,male,1,5,7,王刚,Good,C.bmp,No,1,m,m,200
16,22,right,male,1,7,8,李明,Normal,S.bmp,Yes,0,n,m,83
16,22,right,male,1,9,9,李明,Bad,T.bmp,No,1,m,m,111
16,22,right,male,1,8,10,李明,Good,C.bmp,No,0,m,n,18
16,22,right,male,1,4,11,王刚,Bad,T.bmp,Yes,0,n,m,86
16,22,right,male,1,1,12,张伟,Good,C.bmp,Yes,1,n,n,109
16,22,right,male,1,7,13,李明,Normal,S.bmp,Yes,0,n,m,39
16,22,right,male,1,8,14,李明,Good,C.bmp,No,1,m,m,98
16,22,right,male,1,3,15,张伟,Normal,S.bmp,No,0,m,n,17
16,22,right,male,1,5,16,王刚,Good,C.bmp,No,1,m,m,132
16,22,right,male,1,9,17,李明,Bad,T.bmp,No,0,m,n,647
16,22,right,male,1,1,18,张伟,Good,C.bmp,Yes,0,n,,0
16,22,right,male,1,4,19,王刚,Bad,T.bmp,Yes,0,n,m,46
16,22,right,male,1,7,20,李明,Normal,S.bmp,Yes,0,n,m,298
16,22,right,male,1,2,21,张伟,Bad,T.bmp,No,1,m,m,53
16,22,right,male,1,1,22,张伟,Good,C.bmp,Yes,1,n,n,50
16,22,right,male,1,6,23,王刚,Normal,S.bmp,No,0,m,n,76
16,22,right,male,1,4,24,王刚,Bad,T.bmp,Yes,0,n,m,18
16,22,right,male,1,3,25,张伟,Normal,S.bmp,No,1,m,m,757
16,22,right,male,1,5,26,王刚,Good,C.bmp,No,1,m,m,808
16,22,right,male,1,2,27,张伟,Bad,T.bmp,No,1,m,m,819
16,22,right,male,1,1,28,张伟,Good,C.bmp,Yes,1,n,n,895
16,22,right,male,1,6,29,王刚,Normal,S.bmp,No,1,m,m,882
16,22,right,male,1,4,30,王刚,Bad,T.bmp,Yes,1,n,n,1086
16,22,right,male,1,9,31,李明,Bad,T.bmp,No,1,m,m,913
16,22,right,male,1,8,32,李明,Good,C.bmp,No,1,m,m,813
16,22,right,male,1,1,33,张伟,Good,C.bmp,Yes,1,n,n,888
16,22,right,male,1,7,34,李明,Normal,S.bmp,Yes,1,n,n,931
16,22,right,male,1,4,35,王刚,Bad,T.bmp,Yes,1,n,n,799
16,22,right,male,1,7,36,李明,Normal,S.bmp,Yes,1,n,n,938
16,22,right,male,1,2,37,张伟,Bad,T.bmp,No,1,m,m,742
16,22,right,male,1,1,38,张伟,Good,C.bmp,Yes,1,n,n,937
16,22,right,male,1,9,39,李明,Bad,T.bmp,No,1,m,m,741
16,22,right,male,1,4,40,王刚,Bad,T.bmp,Yes,1,n,n,728
16,22,right,male,1,1,41,张伟,Good,C.bmp,Yes,1,n,n,739
16,22,right,male,1,7,42,李明,Normal,S.bmp,Yes,1,n,n,807
16,22,right,male,1,3,43,张伟,Normal,S.bmp,No,1,m,m,882
16,22,right,male,1,6,44,王刚,Normal,S.bmp,No,1,m,m,790
16,22,right,male,1,5,45,王刚,Good,C.bmp,No,1,m,m,969
16,22,right,male,1,7,46,李明,Normal,S.bmp,Yes,1,n,n,853
16,22,right,male,1,8,47,李明,Good,C.bmp,No,1,m,m,896
16,22,right,male,1,4,48,王刚,Bad,T.bmp,Yes,1,n,n,723
16,22,right,male,1,7,49,李明,Normal,S.bmp,Yes,1,n,n,815
16,22,right,male,1,9,50,李明,Bad,T.bmp,No,0,m,n,650
16,22,right,male,1,7,51,李明,Normal,S.bmp,Yes,1,n,n,758
16,22,right,male,1,3,52,张伟,Normal,S.bmp,No,1,m,m,888
16,22,right,male,1,4,53,王刚,Bad,T.bmp,Yes,1,n,n,740
16,22,right,male,1,1,54,张伟,Good,C.bmp,Yes,1,n,n,695
16,22,right,male,1,4,55,王刚,Bad,T.bmp,Yes,0,n,m,898
16,22,right,male,1,8,56,李明,Good,C.bmp,No,0,m,n,806
16,22,right,male,1,6,57,王刚,Normal,S.bmp,No,1,m,m,849
16,22,right,male,1,2,58,张伟,Bad,T.bmp,No,1,m,m,1037
16,22,right,male,1,5,59,王刚,Good,C.bmp,No,1,m,m,840
16,22,right,male,1,1,60,张伟,Good,C.bmp,Yes,1,n,n,764
17,27,right,female,,,1,,,,No,,,,
17,27,right,female,,,2,,,,Yes,,,,
17,27,right,female,,,3,,,,No,,,,
17,27,right,female,,,1,好人,Self,,Yes,,,,
17,27,right,female,,,2,常人,Normal,,Yes,,,,
17,27,right,female,,,3,坏人,Self,,No,,,,
17,27,right,female,,,4,坏人,Self,,Yes,,,,
17,27,right,female,,,5,好人,Self,,Yes,,,,
17,27,right,female,,,6,好人,Self,,No,,,,
17,27,right,female,,,7,坏人,Self,,Yes,,,,
17,27,right,female,,,8,好人,Self,,No,,,,
17,27,right,female,,,9,常人,Good,,Yes,,,,
17,27,right,female,,,10,坏人,Self,,No,,,,
17,27,right,female,,,11,好人,Self,,No,,,,
17,27,right,female,,,12,坏人,Self,,No,,,,
17,27,right,female,,,13,常人,Good,,Yes,,,,
17,27,right,female,,,14,坏人,Self,,No,,,,
17,27,right,female,,,15,常人,Normal,,No,,,,
17,27,right,female,,,16,好人,Self,,Yes,,,,
17,27,right,female,,,17,好人,Bad,,No,,,,
17,27,right,female,,,18,坏人,Self,,Yes,,,,
17,27,right,female,,,19,常人,Good,,No,,,,
17,27,right,female,,,20,常人,Bad,,No,,,,
17,27,right,female,,,21,常人,Normal,,Yes,,,,
17,27,right,female,,,22,常人,Bad,,No,,,,
17,27,right,female,,,23,好人,Self,,Yes,,,,
17,27,right,female,,,24,坏人,Self,,Yes,,,,
17,27,right,female,,,25,常人,Normal,,Yes,,,,
17,27,right,female,,,26,常人,Normal,,Yes,,,,
17,27,right,female,,,27,好人,Self,,Yes,,,,
17,27,right,female,,,28,好人,Self,,Yes,,,,
17,27,right,female,,,29,坏人,Self,,No,,,,
17,27,right,female,,,30,常人,Good,,Yes,,,,
17,27,right,female,,,31,坏人,Self,,Yes,,,,
17,27,right,female,,,32,常人,Good,,Yes,,,,
17,27,right,female,,,33,常人,Normal,,No,,,,
17,27,right,female,,,34,好人,Self,,No,,,,
17,27,right,female,,,35,好人,Self,,No,,,,
17,27,right,female,,,36,常人,Bad,,No,,,,
17,27,right,female,,,37,坏人,Self,,No,,,,
17,27,right,female,,,38,常人,Good,,No,,,,
17,27,right,female,,,39,好人,Self,,No,,,,
17,27,right,female,,,40,坏人,Self,,Yes,,,,
17,27,right,female,,,41,坏人,Self,,No,,,,
17,27,right,female,,,42,好人,Self,,Yes,,,,
17,27,right,female,,,43,好人,Self,,Yes,,,,
17,27,right,female,,,44,常人,Bad,,No,,,,
17,27,right,female,,,45,坏人,Self,,Yes,,,,
17,27,right,female,,,46,坏人,Self,,Yes,,,,
17,27,right,female,,,47,坏人,Self,,No,,,,
17,27,right,female,,,48,好人,Bad,,No,,,,
17,27,right,female,,,49,坏人,Self,,No,,,,
17,27,right,female,,,50,常人,Bad,,No,,,,
17,27,right,female,,,51,坏人,Self,,No,,,,
17,27,right,female,,,52,坏人,Self,,No,,,,
17,27,right,female,,,53,常人,Normal,,Yes,,,,
17,27,right,female,,,54,坏人,Self,,Yes,,,,
17,27,right,female,,,55,常人,Good,,No,,,,
17,27,right,female,,,56,好人,Self,,No,,,,
17,27,right,female,,,57,好人,Self,,No,,,,
17,27,right,female,,,58,坏人,Self,,Yes,,,,
17,27,right,female,,,59,常人,Normal,,Yes,,,,
17,27,right,female,,,60,好人,Self,,Yes,,,,
17,27,right,female,,,61,好人,Self,,No,,,,
17,27,right,female,,,62,常人,Bad,,No,,,,
17,27,right,female,,,63,坏人,Self,,No,,,,
17,27,right,female,,,64,好人,Self,,Yes,,,,
17,27,right,female,,,65,常人,Good,,Yes,,,,
17,27,right,female,,,66,常人,Good,,Yes,,,,
17,27,right,female,,,67,好人,Self,,Yes,,,,
17,27,right,female,,,68,好人,Bad,,No,,,,
17,27,right,female,,,69,坏人,Self,,Yes,,,,
17,27,right,female,,,70,常人,Normal,,No,,,,
17,27,right,female,,,71,好人,Self,,Yes,,,,
17,27,right,female,,,72,坏人,Self,,Yes,,,,
17,27,right,female,,,1,李明,Bad,T.bmp,Yes,0,m,,0
17,27,right,female,,,2,王刚,Good,C.bmp,Yes,0,m,,0
17,27,right,female,,,3,张伟,Normal,S.bmp,Yes,0,m,,0
17,27,right,female,,,4,王刚,Bad,T.bmp,No,0,n,,0
17,27,right,female,,,5,张伟,Good,C.bmp,No,0,n,,0
17,27,right,female,,,6,李明,Good,C.bmp,No,0,n,,0
17,27,right,female,,,7,李明,Bad,T.bmp,Yes,0,m,,0
17,27,right,female,,,8,李明,Normal,S.bmp,No,1,n,n,368
17,27,right,female,,,9,王刚,Normal,S.bmp,No,1,n,n,929
17,27,right,female,,,10,张伟,Bad,T.bmp,No,1,n,n,705
17,27,right,female,,,11,王刚,Good,C.bmp,Yes,0,m,n,441
17,27,right,female,,,12,张伟,Normal,S.bmp,Yes,1,m,m,425
17,27,right,female,,,13,李明,Normal,S.bmp,No,0,n,m,641
17,27,right,female,,,14,张伟,Bad,T.bmp,No,0,n,,0
17,27,right,female,,,15,王刚,Bad,T.bmp,No,0,n,,0
17,27,right,female,,,16,王刚,Good,C.bmp,Yes,0,m,,0
17,27,right,female,,,17,张伟,Normal,S.bmp,Yes,0,m,,0
17,27,right,female,,,18,王刚,Normal,S.bmp,No,0,n,,0
17,27,right,female,,,19,李明,Good,C.bmp,No,0,n,,0
17,27,right,female,,,20,李明,Bad,T.bmp,Yes,1,m,m,330
17,27,right,female,,,21,王刚,Good,C.bmp,Yes,1,m,m,474
17,27,right,female,,,22,李明,Bad,T.bmp,Yes,1,m,m,579
17,27,right,female,,,23,张伟,Normal,S.bmp,Yes,1,m,m,475
17,27,right,female,,,24,张伟,Good,C.bmp,No,0,n,m,395
17,27,right,female,,,25,王刚,Normal,S.bmp,No,0,n,m,758
17,27,right,female,,,26,李明,Good,C.bmp,No,0,n,,0
17,27,right,female,,,27,张伟,Normal,S.bmp,Yes,0,m,,0
17,27,right,female,,,28,李明,Normal,S.bmp,No,0,n,m,998
17,27,right,female,,,29,张伟,Normal,S.bmp,Yes,0,m,n,382
17,27,right,female,,,30,王刚,Good,C.bmp,Yes,1,m,m,894
17,27,right,female,,,31,王刚,Bad,T.bmp,No,1,n,n,918
17,27,right,female,,,32,李明,Bad,T.bmp,Yes,0,m,n,927
17,27,right,female,,,33,张伟,Good,C.bmp,No,0,n,m,679
17,27,right,female,,,34,王刚,Good,C.bmp,Yes,0,m,n,823
17,27,right,female,,,35,李明,Bad,T.bmp,Yes,1,m,m,558
17,27,right,female,,,36,张伟,Bad,T.bmp,No,0,n,m,590
17,27,right,female,,,37,李明,Bad,T.bmp,Yes,1,m,m,974
17,27,right,female,,,38,张伟,Bad,T.bmp,No,0,n,m,847
17,27,right,female,,,39,李明,Normal,S.bmp,No,0,n,,0
17,27,right,female,,,40,王刚,Normal,S.bmp,No,0,n,,0
17,27,right,female,,,41,王刚,Good,C.bmp,Yes,0,m,,0
17,27,right,female,,,42,张伟,Normal,S.bmp,Yes,0,m,,0
17,27,right,female,,,43,王刚,Good,C.bmp,Yes,1,m,m,1063
17,27,right,female,,,44,张伟,Normal,S.bmp,Yes,1,m,m,800
17,27,right,female,,,45,李明,Good,C.bmp,No,0,n,,0
17,27,right,female,,,46,李明,Bad,T.bmp,Yes,0,m,,0
17,27,right,female,,,47,张伟,Good,C.bmp,No,0,n,,0
17,27,right,female,,,48,王刚,Bad,T.bmp,No,1,n,n,536
17,27,right,female,,,49,张伟,Bad,T.bmp,No,1,n,n,434
17,27,right,female,,,50,张伟,Good,C.bmp,No,0,n,m,418
17,27,right,female,,,51,王刚,Good,C.bmp,Yes,0,m,n,521
17,27,right,female,,,52,李明,Bad,T.bmp,Yes,0,m,n,857
17,27,right,female,,,53,李明,Good,C.bmp,No,0,n,,0
17,27,right,female,,,54,李明,Bad,T.bmp,Yes,0,m,,0
17,27,right,female,,,55,王刚,Bad,T.bmp,No,0,n,,0
17,27,right,female,,,56,王刚,Good,C.bmp,Yes,0,m,n,978
17,27,right,female,,,57,张伟,Normal,S.bmp,Yes,0,m,n,994
17,27,right,female,,,58,张伟,Normal,S.bmp,Yes,0,m,n,738
17,27,right,female,,,59,王刚,Normal,S.bmp,No,0,n,m,1082
17,27,right,female,,,60,李明,Normal,S.bmp,No,1,n,n,723
17,27,right,female,,,61,李明,Bad,T.bmp,Yes,0,m,n,675
17,27,right,female,,,62,王刚,Good,C.bmp,Yes,1,m,m,835
17,27,right,female,,,63,李明,Normal,S.bmp,No,1,n,n,955
17,27,right,female,,,64,李明,Good,C.bmp,No,1,n,n,731
17,27,right,female,,,65,张伟,Normal,S.bmp,Yes,0,m,n,651
17,27,right,female,,,66,张伟,Bad,T.bmp,No,1,n,n,1044
17,27,right,female,,,67,李明,Bad,T.bmp,Yes,1,m,m,892
17,27,right,female,,,68,王刚,Bad,T.bmp,No,1,n,n,724
17,27,right,female,,,69,张伟,Normal,S.bmp,Yes,0,m,,0
17,27,right,female,,,70,王刚,Normal,S.bmp,No,1,n,n,492
17,27,right,female,,,71,王刚,Good,C.bmp,Yes,1,m,m,596
17,27,right,female,,,72,张伟,Good,C.bmp,No,1,n,n,516
17,27,right,female,,,73,李明,Bad,T.bmp,Yes,0,m,n,794
17,27,right,female,,,74,张伟,Normal,S.bmp,Yes,0,m,n,626
17,27,right,female,,,75,张伟,Good,C.bmp,No,1,n,n,930
17,27,right,female,,,76,王刚,Good,C.bmp,Yes,1,m,m,746
17,27,right,female,,,77,王刚,Good,C.bmp,Yes,0,m,n,787
17,27,right,female,,,78,王刚,Normal,S.bmp,No,0,n,m,923
17,27,right,female,,,79,张伟,Bad,T.bmp,No,1,n,n,587
17,27,right,female,,,80,王刚,Bad,T.bmp,No,1,n,n,467
17,27,right,female,,,81,李明,Normal,S.bmp,No,1,n,n,787
17,27,right,female,,,82,李明,Bad,T.bmp,Yes,0,m,n,531
17,27,right,female,,,83,李明,Good,C.bmp,No,1,n,n,684
17,27,right,female,,,84,张伟,Normal,S.bmp,Yes,0,m,,0
17,27,right,female,,,85,张伟,Normal,S.bmp,Yes,0,m,n,716
17,27,right,female,,,86,李明,Normal,S.bmp,No,1,n,n,636
17,27,right,female,,,87,王刚,Good,C.bmp,Yes,1,m,m,596
17,27,right,female,,,88,王刚,Bad,T.bmp,No,1,n,n,547
17,27,right,female,,,89,李明,Bad,T.bmp,Yes,0,m,n,515
17,27,right,female,,,90,李明,Good,C.bmp,No,1,n,n,796
17,27,right,female,,,91,张伟,Bad,T.bmp,No,1,n,n,748
17,27,right,female,,,92,王刚,Normal,S.bmp,No,0,n,m,636
17,27,right,female,,,93,李明,Bad,T.bmp,Yes,0,m,n,508
17,27,right,female,,,94,张伟,Normal,S.bmp,Yes,0,m,n,420
17,27,right,female,,,95,张伟,Good,C.bmp,No,1,n,n,444
17,27,right,female,,,96,王刚,Good,C.bmp,Yes,1,m,m,797
17,27,right,female,,,97,李明,Good,C.bmp,No,1,n,n,376
17,27,right,female,,,98,王刚,Good,C.bmp,Yes,1,m,m,608
17,27,right,female,,,99,张伟,Good,C.bmp,No,1,n,n,632
17,27,right,female,,,100,张伟,Bad,T.bmp,No,0,n,m,968
17,27,right,female,,,101,王刚,Good,C.bmp,Yes,0,m,n,384
17,27,right,female,,,102,王刚,Normal,S.bmp,No,1,n,n,576
17,27,right,female,,,103,李明,Normal,S.bmp,No,0,n,,0
17,27,right,female,,,104,李明,Bad,T.bmp,Yes,0,m,n,601
17,27,right,female,,,105,张伟,Normal,S.bmp,Yes,0,m,n,801
17,27,right,female,,,106,王刚,Bad,T.bmp,No,1,n,n,673
17,27,right,female,,,107,李明,Bad,T.bmp,Yes,0,m,n,649
17,27,right,female,,,108,张伟,Normal,S.bmp,Yes,0,m,n,928
17,27,right,female,,,109,李明,Bad,T.bmp,Yes,0,m,n,584
17,27,right,female,,,110,李明,Good,C.bmp,No,0,n,m,713
17,27,right,female,,,111,李明,Bad,T.bmp,Yes,0,m,n,577
17,27,right,female,,,112,王刚,Good,C.bmp,Yes,1,m,m,657
17,27,right,female,,,113,王刚,Bad,T.bmp,No,1,n,n,473
17,27,right,female,,,114,张伟,Good,C.bmp,No,1,n,n,649
17,27,right,female,,,115,王刚,Normal,S.bmp,No,0,n,m,1009
17,27,right,female,,,116,张伟,Bad,T.bmp,No,1,n,n,554
17,27,right,female,,,117,李明,Normal,S.bmp,No,1,n,n,730
17,27,right,female,,,118,王刚,Good,C.bmp,Yes,0,m,n,522
17,27,right,female,,,119,张伟,Normal,S.bmp,Yes,0,m,n,402
17,27,right,female,,,120,张伟,Normal,S.bmp,Yes,0,m,n,554
17,27,right,female,,,121,张伟,Normal,S.bmp,Yes,0,m,n,819
17,27,right,female,,,122,张伟,Good,C.bmp,No,1,n,n,659
17,27,right,female,,,123,李明,Good,C.bmp,No,1,n,n,1052
17,27,right,female,,,124,王刚,Bad,T.bmp,No,1,n,n,772
17,27,right,female,,,125,王刚,Good,C.bmp,Yes,1,m,m,404
17,27,right,female,,,126,李明,Bad,T.bmp,Yes,1,m,m,804
17,27,right,female,,,127,王刚,Good,C.bmp,Yes,1,m,m,668
17,27,right,female,,,128,张伟,Bad,T.bmp,No,0,n,m,923
17,27,right,female,,,129,李明,Normal,S.bmp,No,0,n,m,948
17,27,right,female,,,130,王刚,Normal,S.bmp,No,1,n,n,836
17,27,right,female,,,131,李明,Bad,T.bmp,Yes,1,m,m,1012
17,27,right,female,,,132,张伟,Normal,S.bmp,Yes,1,m,m,948
17,27,right,female,,,133,李明,Bad,T.bmp,Yes,1,m,m,692
17,27,right,female,,,134,张伟,Good,C.bmp,No,1,n,n,700
17,27,right,female,,,135,张伟,Bad,T.bmp,No,0,n,m,1020
17,27,right,female,,,136,李明,Normal,S.bmp,No,0,n,m,1045
17,27,right,female,,,137,张伟,Normal,S.bmp,Yes,0,m,n,773
17,27,right,female,,,138,王刚,Good,C.bmp,Yes,1,m,m,589
17,27,right,female,,,139,王刚,Good,C.bmp,Yes,1,m,m,661
17,27,right,female,,,140,王刚,Normal,S.bmp,No,1,n,n,797
17,27,right,female,,,141,李明,Good,C.bmp,No,1,n,n,1093
17,27,right,female,,,142,李明,Bad,T.bmp,Yes,1,m,m,838
17,27,right,female,,,143,张伟,Normal,S.bmp,Yes,1,m,m,950
17,27,right,female,,,144,王刚,Bad,T.bmp,No,1,n,n,774
17,27,right,female,1,7,1,张伟,Normal,S.bmp,Yes,0,m,,0
17,27,right,female,1,8,2,张伟,Good,C.bmp,No,1,n,n,805
17,27,right,female,1,5,3,李明,Good,C.bmp,No,1,n,n,765
17,27,right,female,1,2,4,王刚,Bad,T.bmp,No,1,n,n,677
17,27,right,female,1,4,5,李明,Bad,T.bmp,Yes,1,m,m,701
17,27,right,female,1,1,6,王刚,Good,C.bmp,Yes,1,m,m,565
17,27,right,female,1,4,7,李明,Bad,T.bmp,Yes,1,m,m,789
17,27,right,female,1,7,8,张伟,Normal,S.bmp,Yes,1,m,m,518
17,27,right,female,1,3,9,王刚,Normal,S.bmp,No,1,n,n,558
17,27,right,female,1,1,10,王刚,Good,C.bmp,Yes,1,m,m,598
17,27,right,female,1,9,11,张伟,Bad,T.bmp,No,0,n,m,678
17,27,right,female,1,6,12,李明,Normal,S.bmp,No,0,n,m,654
17,27,right,female,1,5,13,李明,Good,C.bmp,No,1,n,n,582
17,27,right,female,1,1,14,王刚,Good,C.bmp,Yes,1,m,m,582
17,27,right,female,1,2,15,王刚,Bad,T.bmp,No,0,n,,0
17,27,right,female,1,6,16,李明,Normal,S.bmp,No,1,n,n,615
17,27,right,female,1,8,17,张伟,Good,C.bmp,No,1,n,n,823
17,27,right,female,1,7,18,张伟,Normal,S.bmp,Yes,1,m,m,775
17,27,right,female,1,4,19,李明,Bad,T.bmp,Yes,1,m,m,903
17,27,right,female,1,1,20,王刚,Good,C.bmp,Yes,1,m,m,543
17,27,right,female,1,3,21,王刚,Normal,S.bmp,No,1,n,n,736
17,27,right,female,1,4,22,李明,Bad,T.bmp,Yes,1,m,m,600
17,27,right,female,1,7,23,张伟,Normal,S.bmp,Yes,0,m,n,560
17,27,right,female,1,9,24,张伟,Bad,T.bmp,No,0,n,,0
17,27,right,female,1,6,25,李明,Normal,S.bmp,No,0,n,m,936
17,27,right,female,1,8,26,张伟,Good,C.bmp,No,1,n,n,688
17,27,right,female,1,1,27,王刚,Good,C.bmp,Yes,1,m,m,536
17,27,right,female,1,7,28,张伟,Normal,S.bmp,Yes,0,m,n,648
17,27,right,female,1,4,29,李明,Bad,T.bmp,Yes,1,m,m,720
17,27,right,female,1,9,30,张伟,Bad,T.bmp,No,0,n,,0
17,27,right,female,1,5,31,李明,Good,C.bmp,No,1,n,n,1000
17,27,right,female,1,3,32,王刚,Normal,S.bmp,No,1,n,n,800
17,27,right,female,1,2,33,王刚,Bad,T.bmp,No,1,n,n,672
17,27,right,female,1,4,34,李明,Bad,T.bmp,Yes,1,m,m,601
17,27,right,female,1,1,35,王刚,Good,C.bmp,Yes,1,m,m,705
17,27,right,female,1,7,36,张伟,Normal,S.bmp,Yes,1,m,m,905
17,27,right,female,1,7,37,张伟,Normal,S.bmp,Yes,0,m,n,585
17,27,right,female,1,3,38,王刚,Normal,S.bmp,No,1,n,n,745
17,27,right,female,1,1,39,王刚,Good,C.bmp,Yes,1,m,m,801
17,27,right,female,1,9,40,张伟,Bad,T.bmp,No,0,n,m,618
17,27,right,female,1,8,41,张伟,Good,C.bmp,No,1,n,n,754
17,27,right,female,1,7,42,张伟,Normal,S.bmp,Yes,0,m,n,506
17,27,right,female,1,5,43,李明,Good,C.bmp,No,1,n,n,1066
17,27,right,female,1,1,44,王刚,Good,C.bmp,Yes,1,m,m,530
17,27,right,female,1,4,45,李明,Bad,T.bmp,Yes,1,m,m,642
17,27,right,female,1,2,46,王刚,Bad,T.bmp,No,1,n,n,634
17,27,right,female,1,4,47,李明,Bad,T.bmp,Yes,1,m,m,875
17,27,right,female,1,6,48,李明,Normal,S.bmp,No,1,n,n,731
17,27,right,female,1,4,49,李明,Bad,T.bmp,Yes,1,m,m,707
17,27,right,female,1,4,50,李明,Bad,T.bmp,Yes,0,m,n,515
17,27,right,female,1,7,51,张伟,Normal,S.bmp,Yes,1,m,m,659
17,27,right,female,1,1,52,王刚,Good,C.bmp,Yes,1,m,m,563
17,27,right,female,1,5,53,李明,Good,C.bmp,No,1,n,n,692
17,27,right,female,1,6,54,李明,Normal,S.bmp,No,0,n,m,556
17,27,right,female,1,2,55,王刚,Bad,T.bmp,No,1,n,n,563
17,27,right,female,1,8,56,张伟,Good,C.bmp,No,1,n,n,907
17,27,right,female,1,9,57,张伟,Bad,T.bmp,No,1,n,n,651
17,27,right,female,1,7,58,张伟,Normal,S.bmp,Yes,1,m,m,819
17,27,right,female,1,1,59,王刚,Good,C.bmp,Yes,1,m,m,499
17,27,right,female,1,3,60,王刚,Normal,S.bmp,No,1,n,n,612
17,27,right,female,1,1,1,王刚,Good,C.bmp,Yes,1,m,m,665
17,27,right,female,1,4,2,李明,Bad,T.bmp,Yes,1,m,m,697
17,27,right,female,1,4,3,李明,Bad,T.bmp,Yes,1,m,m,753
17,27,right,female,1,5,4,李明,Good,C.bmp,No,0,n,m,545
17,27,right,female,1,7,5,张伟,Normal,S.bmp,Yes,1,m,m,793
17,27,right,female,1,2,6,王刚,Bad,T.bmp,No,1,n,n,514
17,27,right,female,1,3,7,王刚,Normal,S.bmp,No,1,n,n,842
17,27,right,female,1,1,8,王刚,Good,C.bmp,Yes,1,m,m,986
17,27,right,female,1,7,9,张伟,Normal,S.bmp,Yes,1,m,m,906
17,27,right,female,1,9,10,张伟,Bad,T.bmp,No,0,n,,0
17,27,right,female,1,6,11,李明,Normal,S.bmp,No,0,n,m,818
17,27,right,female,1,8,12,张伟,Good,C.bmp,No,1,n,n,602
17,27,right,female,1,2,13,王刚,Bad,T.bmp,No,1,n,n,659
17,27,right,female,1,7,14,张伟,Normal,S.bmp,Yes,1,m,m,770
17,27,right,female,1,6,15,李明,Normal,S.bmp,No,1,n,n,562
17,27,right,female,1,9,16,张伟,Bad,T.bmp,No,0,n,m,738
17,27,right,female,1,7,17,张伟,Normal,S.bmp,Yes,0,m,n,1026
17,27,right,female,1,8,18,张伟,Good,C.bmp,No,1,n,n,802
17,27,right,female,1,5,19,李明,Good,C.bmp,No,0,n,m,819
17,27,right,female,1,3,20,王刚,Normal,S.bmp,No,1,n,n,635
17,27,right,female,1,4,21,李明,Bad,T.bmp,Yes,1,m,m,675
17,27,right,female,1,1,22,王刚,Good,C.bmp,Yes,1,m,m,819
17,27,right,female,1,1,23,王刚,Good,C.bmp,Yes,1,m,m,603
17,27,right,female,1,4,24,李明,Bad,T.bmp,Yes,1,m,m,635
17,27,right,female,1,3,25,王刚,Normal,S.bmp,No,1,n,n,675
17,27,right,female,1,5,26,李明,Good,C.bmp,No,0,n,,0
17,27,right,female,1,1,27,王刚,Good,C.bmp,Yes,1,m,m,628
17,27,right,female,1,2,28,王刚,Bad,T.bmp,No,1,n,n,500
17,27,right,female,1,7,29,张伟,Normal,S.bmp,Yes,1,m,m,780
17,27,right,female,1,1,30,王刚,Good,C.bmp,Yes,1,m,m,516
17,27,right,female,1,6,31,李明,Normal,S.bmp,No,1,n,n,636
17,27,right,female,1,7,32,张伟,Normal,S.bmp,Yes,0,m,n,629
17,27,right,female,1,8,33,张伟,Good,C.bmp,No,0,n,m,477
17,27,right,female,1,9,34,张伟,Bad,T.bmp,No,0,n,m,837
17,27,right,female,1,4,35,李明,Bad,T.bmp,Yes,0,m,n,573
17,27,right,female,1,4,36,李明,Bad,T.bmp,Yes,0,m,n,877
17,27,right,female,1,4,37,李明,Bad,T.bmp,Yes,0,m,,0
17,27,right,female,1,8,38,张伟,Good,C.bmp,No,1,n,n,838
17,27,right,female,1,4,39,李明,Bad,T.bmp,Yes,0,m,n,574
17,27,right,female,1,6,40,李明,Normal,S.bmp,No,1,n,n,709
17,27,right,female,1,7,41,张伟,Normal,S.bmp,Yes,1,m,m,677
17,27,right,female,1,2,42,王刚,Bad,T.bmp,No,1,n,n,661
17,27,right,female,1,1,43,王刚,Good,C.bmp,Yes,1,m,m,437
17,27,right,female,1,7,44,张伟,Normal,S.bmp,Yes,0,m,n,613
17,27,right,female,1,1,45,王刚,Good,C.bmp,Yes,1,m,m,486
17,27,right,female,1,3,46,王刚,Normal,S.bmp,No,1,n,n,630
17,27,right,female,1,9,47,张伟,Bad,T.bmp,No,0,n,m,790
17,27,right,female,1,5,48,李明,Good,C.bmp,No,1,n,n,918
17,27,right,female,1,5,49,李明,Good,C.bmp,No,0,n,m,838
17,27,right,female,1,6,50,李明,Normal,S.bmp,No,0,n,m,830
17,27,right,female,1,1,51,王刚,Good,C.bmp,Yes,1,m,m,543
17,27,right,female,1,1,52,王刚,Good,C.bmp,Yes,1,m,m,711
17,27,right,female,1,8,53,张伟,Good,C.bmp,No,1,n,n,647
17,27,right,female,1,7,54,张伟,Normal,S.bmp,Yes,1,m,m,751
17,27,right,female,1,7,55,张伟,Normal,S.bmp,Yes,0,m,n,935
17,27,right,female,1,9,56,张伟,Bad,T.bmp,No,1,n,n,1055
17,27,right,female,1,4,57,李明,Bad,T.bmp,Yes,1,m,m,543
17,27,right,female,1,3,58,王刚,Normal,S.bmp,No,1,n,n,840
17,27,right,female,1,2,59,王刚,Bad,T.bmp,No,1,n,n,728
17,27,right,female,1,4,60,李明,Bad,T.bmp,Yes,1,m,m,688
17,27,right,female,1,8,1,张伟,Good,C.bmp,No,1,n,n,964
17,27,right,female,1,9,2,张伟,Bad,T.bmp,No,0,n,,0
17,27,right,female,1,4,3,李明,Bad,T.bmp,Yes,1,m,m,1004
17,27,right,female,1,3,4,王刚,Normal,S.bmp,No,1,n,n,669
17,27,right,female,1,7,5,张伟,Normal,S.bmp,Yes,1,m,m,677
17,27,right,female,1,2,6,王刚,Bad,T.bmp,No,1,n,n,645
17,27,right,female,1,6,7,李明,Normal,S.bmp,No,0,n,m,901
17,27,right,female,1,1,8,王刚,Good,C.bmp,Yes,1,m,m,653
17,27,right,female,1,5,9,李明,Good,C.bmp,No,1,n,n,637
17,27,right,female,1,1,10,王刚,Good,C.bmp,Yes,1,m,m,597
17,27,right,female,1,4,11,李明,Bad,T.bmp,Yes,0,m,n,646
17,27,right,female,1,7,12,张伟,Normal,S.bmp,Yes,1,m,m,630
17,27,right,female,1,7,13,张伟,Normal,S.bmp,Yes,1,m,m,926
17,27,right,female,1,4,14,李明,Bad,T.bmp,Yes,1,m,m,718
17,27,right,female,1,4,15,李明,Bad,T.bmp,Yes,1,m,m,998
17,27,right,female,1,9,16,张伟,Bad,T.bmp,No,0,n,m,556
17,27,right,female,1,8,17,张伟,Good,C.bmp,No,1,n,n,829
17,27,right,female,1,3,18,王刚,Normal,S.bmp,No,1,n,n,701
17,27,right,female,1,2,19,王刚,Bad,T.bmp,No,1,n,n,917
17,27,right,female,1,1,20,王刚,Good,C.bmp,Yes,1,m,m,557
17,27,right,female,1,5,21,李明,Good,C.bmp,No,1,n,n,933
17,27,right,female,1,6,22,李明,Normal,S.bmp,No,0,n,m,773
17,27,right,female,1,1,23,王刚,Good,C.bmp,Yes,1,m,m,630
17,27,right,female,1,7,24,张伟,Normal,S.bmp,Yes,1,m,m,990
17,27,right,female,1,7,25,张伟,Normal,S.bmp,Yes,1,m,m,726
17,27,right,female,1,9,26,张伟,Bad,T.bmp,No,1,n,n,542
17,27,right,female,1,4,27,李明,Bad,T.bmp,Yes,1,m,m,629
17,27,right,female,1,4,28,李明,Bad,T.bmp,Yes,0,m,n,605
17,27,right,female,1,3,29,王刚,Normal,S.bmp,No,1,n,n,741
17,27,right,female,1,7,30,张伟,Normal,S.bmp,Yes,1,m,m,878
17,27,right,female,1,5,31,李明,Good,C.bmp,No,1,n,n,854
17,27,right,female,1,6,32,李明,Normal,S.bmp,No,0,n,m,750
17,27,right,female,1,1,33,王刚,Good,C.bmp,Yes,1,m,m,414
17,27,right,female,1,1,34,王刚,Good,C.bmp,Yes,1,m,m,510
17,27,right,female,1,8,35,张伟,Good,C.bmp,No,1,n,n,622
17,27,right,female,1,2,36,王刚,Bad,T.bmp,No,1,n,n,823
17,27,right,female,1,6,37,李明,Normal,S.bmp,No,0,n,m,743
17,27,right,female,1,1,38,王刚,Good,C.bmp,Yes,1,m,m,511
17,27,right,female,1,4,39,李明,Bad,T.bmp,Yes,1,m,m,615
17,27,right,female,1,4,40,李明,Bad,T.bmp,Yes,1,m,m,623
17,27,right,female,1,9,41,张伟,Bad,T.bmp,No,0,n,m,519
17,27,right,female,1,5,42,李明,Good,C.bmp,No,1,n,n,735
17,27,right,female,1,7,43,张伟,Normal,S.bmp,Yes,1,m,m,736
17,27,right,female,1,3,44,王刚,Normal,S.bmp,No,1,n,n,584
17,27,right,female,1,8,45,张伟,Good,C.bmp,No,1,n,n,688
17,27,right,female,1,1,46,王刚,Good,C.bmp,Yes,1,m,m,504
17,27,right,female,1,2,47,王刚,Bad,T.bmp,No,1,n,n,648
17,27,right,female,1,7,48,张伟,Normal,S.bmp,Yes,1,m,m,912
17,27,right,female,1,4,49,李明,Bad,T.bmp,Yes,1,m,m,777
17,27,right,female,1,7,50,张伟,Normal,S.bmp,Yes,0,m,,0
17,27,right,female,1,9,51,张伟,Bad,T.bmp,No,0,n,m,849
17,27,right,female,1,1,52,王刚,Good,C.bmp,Yes,1,m,m,505
17,27,right,female,1,4,53,李明,Bad,T.bmp,Yes,1,m,m,600
17,27,right,female,1,3,54,王刚,Normal,S.bmp,No,1,n,n,648
17,27,right,female,1,2,55,王刚,Bad,T.bmp,No,0,n,,0
17,27,right,female,1,1,56,王刚,Good,C.bmp,Yes,1,m,m,537
17,27,right,female,1,5,57,李明,Good,C.bmp,No,1,n,n,673
17,27,right,female,1,7,58,张伟,Normal,S.bmp,Yes,1,m,m,625
17,27,right,female,1,8,59,张伟,Good,C.bmp,No,1,n,n,873
17,27,right,female,1,6,60,李明,Normal,S.bmp,No,0,n,m,769
17,27,right,female,1,6,1,李明,Normal,S.bmp,No,1,n,n,802
17,27,right,female,1,1,2,王刚,Good,C.bmp,Yes,1,m,m,515
17,27,right,female,1,9,3,张伟,Bad,T.bmp,No,0,n,m,675
17,27,right,female,1,1,4,王刚,Good,C.bmp,Yes,1,m,m,531
17,27,right,female,1,2,5,王刚,Bad,T.bmp,No,1,n,n,731
17,27,right,female,1,5,6,李明,Good,C.bmp,No,0,n,m,515
17,27,right,female,1,4,7,李明,Bad,T.bmp,Yes,1,m,m,563
17,27,right,female,1,7,8,张伟,Normal,S.bmp,Yes,1,m,m,820
17,27,right,female,1,7,9,张伟,Normal,S.bmp,Yes,1,m,m,1084
17,27,right,female,1,3,10,王刚,Normal,S.bmp,No,1,n,n,660
17,27,right,female,1,8,11,张伟,Good,C.bmp,No,0,n,m,652
17,27,right,female,1,4,12,李明,Bad,T.bmp,Yes,1,m,m,564
17,27,right,female,1,4,13,李明,Bad,T.bmp,Yes,1,m,m,763
17,27,right,female,1,6,14,李明,Normal,S.bmp,No,0,n,m,867
17,27,right,female,1,2,15,王刚,Bad,T.bmp,No,1,n,n,644
17,27,right,female,1,7,16,张伟,Normal,S.bmp,Yes,1,m,m,628
17,27,right,female,1,8,17,张伟,Good,C.bmp,No,1,n,n,708
17,27,right,female,1,3,18,王刚,Normal,S.bmp,No,1,n,n,740
17,27,right,female,1,7,19,张伟,Normal,S.bmp,Yes,1,m,m,660
17,27,right,female,1,5,20,李明,Good,C.bmp,No,1,n,n,652
17,27,right,female,1,4,21,李明,Bad,T.bmp,Yes,1,m,m,685
17,27,right,female,1,1,22,王刚,Good,C.bmp,Yes,1,m,m,589
17,27,right,female,1,1,23,王刚,Good,C.bmp,Yes,1,m,m,565
17,27,right,female,1,9,24,张伟,Bad,T.bmp,No,0,n,m,597
17,27,right,female,1,8,25,张伟,Good,C.bmp,No,0,n,m,549
17,27,right,female,1,3,26,王刚,Normal,S.bmp,No,1,n,n,701
17,27,right,female,1,6,27,李明,Normal,S.bmp,No,0,n,m,797
17,27,right,female,1,9,28,张伟,Bad,T.bmp,No,0,n,m,686
17,27,right,female,1,5,29,李明,Good,C.bmp,No,1,n,n,734
17,27,right,female,1,1,30,王刚,Good,C.bmp,Yes,1,m,m,534
17,27,right,female,1,4,31,李明,Bad,T.bmp,Yes,1,m,m,606
17,27,right,female,1,7,32,张伟,Normal,S.bmp,Yes,1,m,m,774
17,27,right,female,1,1,33,王刚,Good,C.bmp,Yes,1,m,m,558
17,27,right,female,1,7,34,张伟,Normal,S.bmp,Yes,1,m,m,735
17,27,right,female,1,4,35,李明,Bad,T.bmp,Yes,1,m,m,527
17,27,right,female,1,2,36,王刚,Bad,T.bmp,No,1,n,n,623
17,27,right,female,1,1,37,王刚,Good,C.bmp,Yes,0,m,n,519
17,27,right,female,1,4,38,李明,Bad,T.bmp,Yes,1,m,m,903
17,27,right,female,1,6,39,李明,Normal,S.bmp,No,0,n,m,727
17,27,right,female,1,4,40,李明,Bad,T.bmp,Yes,1,m,m,551
17,27,right,female,1,2,41,王刚,Bad,T.bmp,No,1,n,n,559
17,27,right,female,1,1,42,王刚,Good,C.bmp,Yes,1,m,m,519
17,27,right,female,1,9,43,张伟,Bad,T.bmp,No,0,n,m,559
17,27,right,female,1,7,44,张伟,Normal,S.bmp,Yes,1,m,m,583
17,27,right,female,1,7,45,张伟,Normal,S.bmp,Yes,1,m,m,631
17,27,right,female,1,5,46,李明,Good,C.bmp,No,1,n,n,943
17,27,right,female,1,3,47,王刚,Normal,S.bmp,No,0,n,m,448
17,27,right,female,1,8,48,张伟,Good,C.bmp,No,0,n,m,568
17,27,right,female,1,6,49,李明,Normal,S.bmp,No,0,n,m,656
17,27,right,female,1,7,50,张伟,Normal,S.bmp,Yes,0,m,,0
17,27,right,female,1,4,51,李明,Bad,T.bmp,Yes,1,m,m,744
17,27,right,female,1,4,52,李明,Bad,T.bmp,Yes,1,m,m,848
17,27,right,female,1,9,53,张伟,Bad,T.bmp,No,1,n,n,513
17,27,right,female,1,8,54,张伟,Good,C.bmp,No,1,n,n,673
17,27,right,female,1,1,55,王刚,Good,C.bmp,Yes,1,m,m,593
17,27,right,female,1,7,56,张伟,Normal,S.bmp,Yes,1,m,m,689
17,27,right,female,1,1,57,王刚,Good,C.bmp,Yes,1,m,m,513
17,27,right,female,1,5,58,李明,Good,C.bmp,No,1,n,n,849
17,27,right,female,1,3,59,王刚,Normal,S.bmp,No,1,n,n,745
17,27,right,female,1,2,60,王刚,Bad,T.bmp,No,0,n,m,578
17,27,right,female,1,4,1,李明,Bad,T.bmp,Yes,1,m,m,902
17,27,right,female,1,2,2,王刚,Bad,T.bmp,No,1,n,n,694
17,27,right,female,1,1,3,王刚,Good,C.bmp,Yes,1,m,m,534
17,27,right,female,1,6,4,李明,Normal,S.bmp,No,0,n,m,726
17,27,right,female,1,7,5,张伟,Normal,S.bmp,Yes,1,m,m,462
17,27,right,female,1,8,6,张伟,Good,C.bmp,No,1,n,n,759
17,27,right,female,1,7,7,张伟,Normal,S.bmp,Yes,1,m,m,639
17,27,right,female,1,4,8,李明,Bad,T.bmp,Yes,1,m,m,823
17,27,right,female,1,3,9,王刚,Normal,S.bmp,No,1,n,n,703
17,27,right,female,1,1,10,王刚,Good,C.bmp,Yes,1,m,m,487
17,27,right,female,1,9,11,张伟,Bad,T.bmp,No,0,n,,0
17,27,right,female,1,5,12,李明,Good,C.bmp,No,0,n,,0
17,27,right,female,1,1,13,王刚,Good,C.bmp,Yes,1,m,m,558
17,27,right,female,1,4,14,李明,Bad,T.bmp,Yes,1,m,m,670
17,27,right,female,1,6,15,李明,Normal,S.bmp,No,1,n,n,894
17,27,right,female,1,7,16,张伟,Normal,S.bmp,Yes,1,m,m,590
17,27,right,female,1,4,17,李明,Bad,T.bmp,Yes,1,m,m,590
17,27,right,female,1,2,18,王刚,Bad,T.bmp,No,1,n,n,518
17,27,right,female,1,5,19,李明,Good,C.bmp,No,0,n,m,463
17,27,right,female,1,1,20,王刚,Good,C.bmp,Yes,1,m,m,495
17,27,right,female,1,7,21,张伟,Normal,S.bmp,Yes,1,m,m,615
17,27,right,female,1,9,22,张伟,Bad,T.bmp,No,1,n,n,1039
17,27,right,female,1,8,23,张伟,Good,C.bmp,No,0,n,m,527
17,27,right,female,1,3,24,王刚,Normal,S.bmp,No,0,n,m,423
17,27,right,female,1,3,25,王刚,Normal,S.bmp,No,1,n,n,1088
17,27,right,female,1,9,26,张伟,Bad,T.bmp,No,0,n,m,791
17,27,right,female,1,1,27,王刚,Good,C.bmp,Yes,1,m,m,527
17,27,right,female,1,1,28,王刚,Good,C.bmp,Yes,1,m,m,623
17,27,right,female,1,4,29,李明,Bad,T.bmp,Yes,1,m,m,607
17,27,right,female,1,4,30,李明,Bad,T.bmp,Yes,1,m,m,695
17,27,right,female,1,7,31,张伟,Normal,S.bmp,Yes,1,m,m,599
17,27,right,female,1,7,32,张伟,Normal,S.bmp,Yes,1,m,m,560
17,27,right,female,1,8,33,张伟,Good,C.bmp,No,1,n,n,680
17,27,right,female,1,5,34,李明,Good,C.bmp,No,1,n,n,648
17,27,right,female,1,2,35,王刚,Bad,T.bmp,No,1,n,n,712
17,27,right,female,1,6,36,李明,Normal,S.bmp,No,1,n,n,712
17,27,right,female,1,6,37,李明,Normal,S.bmp,No,1,n,n,496
17,27,right,female,1,3,38,王刚,Normal,S.bmp,No,1,n,n,553
17,27,right,female,1,7,39,张伟,Normal,S.bmp,Yes,0,m,n,489
17,27,right,female,1,4,40,李明,Bad,T.bmp,Yes,1,m,m,609
17,27,right,female,1,9,41,张伟,Bad,T.bmp,No,0,n,m,569
17,27,right,female,1,1,42,王刚,Good,C.bmp,Yes,1,m,m,481
17,27,right,female,1,7,43,张伟,Normal,S.bmp,Yes,1,m,m,545
17,27,right,female,1,4,44,李明,Bad,T.bmp,Yes,1,m,m,545
17,27,right,female,1,8,45,张伟,Good,C.bmp,No,1,n,n,658
17,27,right,female,1,1,46,王刚,Good,C.bmp,Yes,1,m,m,458
17,27,right,female,1,2,47,王刚,Bad,T.bmp,No,1,n,n,794
17,27,right,female,1,5,48,李明,Good,C.bmp,No,1,n,n,770
17,27,right,female,1,7,49,张伟,Normal,S.bmp,Yes,1,m,m,642
17,27,right,female,1,4,50,李明,Bad,T.bmp,Yes,1,m,m,610
17,27,right,female,1,6,51,李明,Normal,S.bmp,No,1,n,n,595
17,27,right,female,1,9,52,张伟,Bad,T.bmp,No,0,n,m,770
17,27,right,female,1,5,53,李明,Good,C.bmp,No,1,n,n,834
17,27,right,female,1,4,54,李明,Bad,T.bmp,Yes,1,m,m,682
17,27,right,female,1,2,55,王刚,Bad,T.bmp,No,1,n,n,650
17,27,right,female,1,7,56,张伟,Normal,S.bmp,Yes,1,m,m,506
17,27,right,female,1,3,57,王刚,Normal,S.bmp,No,1,n,n,587
17,27,right,female,1,1,58,王刚,Good,C.bmp,Yes,1,m,m,555
17,27,right,female,1,8,59,张伟,Good,C.bmp,No,0,n,m,931
17,27,right,female,1,1,60,王刚,Good,C.bmp,Yes,1,m,m,595
17,27,right,female,1,8,1,张伟,Good,C.bmp,No,0,n,,0
17,27,right,female,1,1,2,王刚,Good,C.bmp,Yes,1,m,m,592
17,27,right,female,1,7,3,张伟,Normal,S.bmp,Yes,1,m,m,544
17,27,right,female,1,4,4,李明,Bad,T.bmp,Yes,1,m,m,601
17,27,right,female,1,3,5,王刚,Normal,S.bmp,No,0,n,m,481
17,27,right,female,1,7,6,张伟,Normal,S.bmp,Yes,1,m,m,753
17,27,right,female,1,4,7,李明,Bad,T.bmp,Yes,1,m,m,585
17,27,right,female,1,5,8,李明,Good,C.bmp,No,1,n,n,809
17,27,right,female,1,1,9,王刚,Good,C.bmp,Yes,1,m,m,737
17,27,right,female,1,6,10,李明,Normal,S.bmp,No,1,n,n,745
17,27,right,female,1,9,11,张伟,Bad,T.bmp,No,0,n,m,530
17,27,right,female,1,2,12,王刚,Bad,T.bmp,No,1,n,n,665
17,27,right,female,1,8,13,张伟,Good,C.bmp,No,1,n,n,745
17,27,right,female,1,6,14,李明,Normal,S.bmp,No,1,n,n,897
17,27,right,female,1,2,15,王刚,Bad,T.bmp,No,1,n,n,601
17,27,right,female,1,1,16,王刚,Good,C.bmp,Yes,1,m,m,497
17,27,right,female,1,4,17,李明,Bad,T.bmp,Yes,1,m,m,554
17,27,right,female,1,7,18,张伟,Normal,S.bmp,Yes,1,m,m,442
17,27,right,female,1,4,19,李明,Bad,T.bmp,Yes,1,m,m,562
17,27,right,female,1,7,20,张伟,Normal,S.bmp,Yes,1,m,m,674
17,27,right,female,1,3,21,王刚,Normal,S.bmp,No,1,n,n,586
17,27,right,female,1,5,22,李明,Good,C.bmp,No,1,n,n,626
17,27,right,female,1,1,23,王刚,Good,C.bmp,Yes,1,m,m,651
17,27,right,female,1,9,24,张伟,Bad,T.bmp,No,0,n,m,707
17,27,right,female,1,8,25,张伟,Good,C.bmp,No,0,n,m,579
17,27,right,female,1,7,26,张伟,Normal,S.bmp,Yes,1,m,m,499
17,27,right,female,1,6,27,李明,Normal,S.bmp,No,1,n,n,859
17,27,right,female,1,7,28,张伟,Normal,S.bmp,Yes,1,m,m,739
17,27,right,female,1,3,29,王刚,Normal,S.bmp,No,1,n,n,611
17,27,right,female,1,2,30,王刚,Bad,T.bmp,No,1,n,n,628
17,27,right,female,1,5,31,李明,Good,C.bmp,No,1,n,n,868
17,27,right,female,1,9,32,张伟,Bad,T.bmp,No,1,n,n,1012
17,27,right,female,1,4,33,李明,Bad,T.bmp,Yes,1,m,m,700
17,27,right,female,1,1,34,王刚,Good,C.bmp,Yes,1,m,m,604
17,27,right,female,1,4,35,李明,Bad,T.bmp,Yes,1,m,m,748
17,27,right,female,1,1,36,王刚,Good,C.bmp,Yes,1,m,m,669
17,27,right,female,1,4,37,李明,Bad,T.bmp,Yes,1,m,m,541
17,27,right,female,1,7,38,张伟,Normal,S.bmp,Yes,1,m,m,492
17,27,right,female,1,8,39,张伟,Good,C.bmp,No,1,n,n,756
17,27,right,female,1,7,40,张伟,Normal,S.bmp,Yes,1,m,m,596
17,27,right,female,1,1,41,王刚,Good,C.bmp,Yes,1,m,m,556
17,27,right,female,1,4,42,李明,Bad,T.bmp,Yes,1,m,m,669
17,27,right,female,1,6,43,李明,Normal,S.bmp,No,1,n,n,893
17,27,right,female,1,5,44,李明,Good,C.bmp,No,1,n,n,709
17,27,right,female,1,1,45,王刚,Good,C.bmp,Yes,1,m,m,501
17,27,right,female,1,2,46,王刚,Bad,T.bmp,No,1,n,n,757
17,27,right,female,1,9,47,张伟,Bad,T.bmp,No,0,n,m,531
17,27,right,female,1,3,48,王刚,Normal,S.bmp,No,1,n,n,731
17,27,right,female,1,9,49,张伟,Bad,T.bmp,No,0,n,m,1036
17,27,right,female,1,1,50,王刚,Good,C.bmp,Yes,1,m,m,572
17,27,right,female,1,6,51,李明,Normal,S.bmp,No,1,n,n,796
17,27,right,female,1,7,52,张伟,Normal,S.bmp,Yes,1,m,m,524
17,27,right,female,1,4,53,李明,Bad,T.bmp,Yes,1,m,m,828
17,27,right,female,1,2,54,王刚,Bad,T.bmp,No,1,n,n,644
17,27,right,female,1,5,55,李明,Good,C.bmp,No,0,n,m,461
17,27,right,female,1,8,56,张伟,Good,C.bmp,No,1,n,n,861
17,27,right,female,1,4,57,李明,Bad,T.bmp,Yes,1,m,m,549
17,27,right,female,1,7,58,张伟,Normal,S.bmp,Yes,1,m,m,629
17,27,right,female,1,3,59,王刚,Normal,S.bmp,No,1,n,n,557
17,27,right,female,1,1,60,王刚,Good,C.bmp,Yes,1,m,m,501
18,22,right,female,,,1,,,,No,,,,
18,22,right,female,,,2,,,,No,,,,
18,22,right,female,,,3,,,,Yes,,,,
18,22,right,female,,,1,坏人,Self,,Yes,,,,
18,22,right,female,,,2,好人,Self,,No,,,,
18,22,right,female,,,3,坏人,Self,,No,,,,
18,22,right,female,,,4,坏人,Self,,No,,,,
18,22,right,female,,,5,坏人,Self,,No,,,,
18,22,right,female,,,6,好人,Self,,Yes,,,,
18,22,right,female,,,7,常人,Normal,,Yes,,,,
18,22,right,female,,,8,常人,Normal,,Yes,,,,
18,22,right,female,,,9,常人,Normal,,No,,,,
18,22,right,female,,,10,坏人,Self,,Yes,,,,
18,22,right,female,,,11,常人,Good,,Yes,,,,
18,22,right,female,,,12,好人,Self,,Yes,,,,
18,22,right,female,,,13,坏人,Self,,No,,,,
18,22,right,female,,,14,坏人,Self,,Yes,,,,
18,22,right,female,,,15,常人,Bad,,No,,,,
18,22,right,female,,,16,常人,Good,,No,,,,
18,22,right,female,,,17,好人,Self,,No,,,,
18,22,right,female,,,18,好人,Bad,,No,,,,
18,22,right,female,,,19,常人,Good,,Yes,,,,
18,22,right,female,,,20,好人,Self,,Yes,,,,
18,22,right,female,,,21,好人,Self,,No,,,,
18,22,right,female,,,22,好人,Self,,Yes,,,,
18,22,right,female,,,23,坏人,Self,,Yes,,,,
18,22,right,female,,,24,常人,Bad,,No,,,,
18,22,right,female,,,1,王刚,Normal,S.bmp,Yes,0,n,,0
18,22,right,female,,,2,张伟,Normal,S.bmp,No,0,m,,0
18,22,right,female,,,3,李明,Bad,T.bmp,No,0,m,,0
18,22,right,female,,,4,张伟,Bad,T.bmp,Yes,1,n,n,819
18,22,right,female,,,5,李明,Good,C.bmp,Yes,0,n,m,658
18,22,right,female,,,6,李明,Normal,S.bmp,No,1,m,m,882
18,22,right,female,,,7,李明,Good,C.bmp,Yes,0,n,m,786
18,22,right,female,,,8,王刚,Bad,T.bmp,No,1,m,m,994
18,22,right,female,,,9,王刚,Good,C.bmp,No,0,m,n,1019
18,22,right,female,,,10,张伟,Good,C.bmp,No,0,m,,0
18,22,right,female,,,11,王刚,Normal,S.bmp,Yes,0,n,,0
18,22,right,female,,,12,张伟,Bad,T.bmp,Yes,1,n,n,955
18,22,right,female,,,13,李明,Good,C.bmp,Yes,0,n,m,715
18,22,right,female,,,14,李明,Bad,T.bmp,No,1,m,m,939
18,22,right,female,,,15,张伟,Bad,T.bmp,Yes,0,n,m,683
18,22,right,female,,,16,王刚,Bad,T.bmp,No,1,m,m,844
18,22,right,female,,,17,张伟,Bad,T.bmp,Yes,1,n,n,652
18,22,right,female,,,18,王刚,Normal,S.bmp,Yes,1,n,n,916
18,22,right,female,,,19,王刚,Normal,S.bmp,Yes,1,n,n,532
18,22,right,female,,,20,王刚,Good,C.bmp,No,1,m,m,740
18,22,right,female,,,21,李明,Normal,S.bmp,No,1,m,m,852
18,22,right,female,,,22,李明,Good,C.bmp,Yes,0,n,m,781
18,22,right,female,,,23,张伟,Good,C.bmp,No,0,m,n,1077
18,22,right,female,,,24,张伟,Normal,S.bmp,No,1,m,m,1061
18,22,right,female,,,25,王刚,Normal,S.bmp,Yes,0,n,m,717
18,22,right,female,,,26,王刚,Good,C.bmp,No,1,m,m,782
18,22,right,female,,,27,王刚,Bad,T.bmp,No,1,m,m,822
18,22,right,female,,,28,张伟,Bad,T.bmp,Yes,1,n,n,766
18,22,right,female,,,29,王刚,Normal,S.bmp,Yes,1,n,n,1030
18,22,right,female,,,30,张伟,Bad,T.bmp,Yes,1,n,n,830
18,22,right,female,,,31,李明,Bad,T.bmp,No,1,m,m,646
18,22,right,female,,,32,李明,Normal,S.bmp,No,1,m,m,719
18,22,right,female,,,33,李明,Good,C.bmp,Yes,1,n,n,655
18,22,right,female,,,34,张伟,Good,C.bmp,No,1,m,m,783
18,22,right,female,,,35,张伟,Normal,S.bmp,No,0,m,n,959
18,22,right,female,,,36,李明,Good,C.bmp,Yes,0,n,m,807
18,22,right,female,,,37,李明,Bad,T.bmp,No,1,m,m,895
18,22,right,female,,,38,张伟,Normal,S.bmp,No,1,m,m,863
18,22,right,female,,,39,王刚,Normal,S.bmp,Yes,1,n,n,808
18,22,right,female,,,40,王刚,Bad,T.bmp,No,1,m,m,704
18,22,right,female,,,41,李明,Good,C.bmp,Yes,0,n,,0
18,22,right,female,,,42,王刚,Good,C.bmp,No,0,m,n,944
18,22,right,female,,,43,张伟,Bad,T.bmp,Yes,1,n,n,848
18,22,right,female,,,44,张伟,Good,C.bmp,No,1,m,m,648
18,22,right,female,,,45,王刚,Normal,S.bmp,Yes,1,n,n,689
18,22,right,female,,,46,李明,Normal,S.bmp,No,1,m,m,561
18,22,right,female,,,47,张伟,Bad,T.bmp,Yes,1,n,n,561
18,22,right,female,,,48,李明,Good,C.bmp,Yes,0,n,m,673
18,22,right,female,1,7,1,王刚,Normal,S.bmp,Yes,1,n,n,694
18,22,right,female,1,1,2,李明,Good,C.bmp,Yes,0,n,m,590
18,22,right,female,1,8,3,王刚,Good,C.bmp,No,1,m,m,1046
18,22,right,female,1,9,4,王刚,Bad,T.bmp,No,0,m,n,870
18,22,right,female,1,1,5,李明,Good,C.bmp,Yes,0,n,,0
18,22,right,female,1,6,6,张伟,Normal,S.bmp,No,1,m,m,727
18,22,right,female,1,2,7,李明,Bad,T.bmp,No,0,m,,0
18,22,right,female,1,4,8,张伟,Bad,T.bmp,Yes,0,n,m,831
18,22,right,female,1,5,9,张伟,Good,C.bmp,No,0,m,n,1015
18,22,right,female,1,4,10,张伟,Bad,T.bmp,Yes,0,n,,0
18,22,right,female,1,7,11,王刚,Normal,S.bmp,Yes,1,n,n,871
18,22,right,female,1,3,12,李明,Normal,S.bmp,No,1,m,m,632
18,22,right,female,1,3,13,李明,Normal,S.bmp,No,1,m,m,736
18,22,right,female,1,9,14,王刚,Bad,T.bmp,No,1,m,m,960
18,22,right,female,1,4,15,张伟,Bad,T.bmp,Yes,0,n,m,928
18,22,right,female,1,6,16,张伟,Normal,S.bmp,No,1,m,m,895
18,22,right,female,1,5,17,张伟,Good,C.bmp,No,1,m,m,647
18,22,right,female,1,1,18,李明,Good,C.bmp,Yes,1,n,n,895
18,22,right,female,1,4,19,张伟,Bad,T.bmp,Yes,1,n,n,832
18,22,right,female,1,2,20,李明,Bad,T.bmp,No,1,m,m,680
18,22,right,female,1,1,21,李明,Good,C.bmp,Yes,1,n,n,864
18,22,right,female,1,7,22,王刚,Normal,S.bmp,Yes,1,n,n,760
18,22,right,female,1,7,23,王刚,Normal,S.bmp,Yes,1,n,n,936
18,22,right,female,1,8,24,王刚,Good,C.bmp,No,1,m,m,600
18,22,right,female,1,7,25,王刚,Normal,S.bmp,Yes,1,n,n,737
18,22,right,female,1,8,26,王刚,Good,C.bmp,No,1,m,m,649
18,22,right,female,1,6,27,张伟,Normal,S.bmp,No,0,m,n,657
18,22,right,female,1,7,28,王刚,Normal,S.bmp,Yes,1,n,n,737
18,22,right,female,1,5,29,张伟,Good,C.bmp,No,1,m,m,841
18,22,right,female,1,1,30,李明,Good,C.bmp,Yes,1,n,n,689
18,22,right,female,1,9,31,王刚,Bad,T.bmp,No,1,m,m,833
18,22,right,female,1,1,32,李明,Good,C.bmp,Yes,1,n,n,722
18,22,right,female,1,4,33,张伟,Bad,T.bmp,Yes,1,n,n,698
18,22,right,female,1,3,34,李明,Normal,S.bmp,No,1,m,m,658
18,22,right,female,1,2,35,李明,Bad,T.bmp,No,0,m,n,602
18,22,right,female,1,4,36,张伟,Bad,T.bmp,Yes,1,n,n,874
18,22,right,female,1,4,37,张伟,Bad,T.bmp,Yes,1,n,n,514
18,22,right,female,1,7,38,王刚,Normal,S.bmp,Yes,1,n,n,659
18,22,right,female,1,3,39,李明,Normal,S.bmp,No,1,m,m,515
18,22,right,female,1,6,40,张伟,Normal,S.bmp,No,0,m,n,691
18,22,right,female,1,1,41,李明,Good,C.bmp,Yes,1,n,n,643
18,22,right,female,1,5,42,张伟,Good,C.bmp,No,1,m,m,682
18,22,right,female,1,7,43,王刚,Normal,S.bmp,Yes,1,n,n,490
18,22,right,female,1,4,44,张伟,Bad,T.bmp,Yes,0,n,m,682
18,22,right,female,1,8,45,王刚,Good,C.bmp,No,0,m,n,723
18,22,right,female,1,1,46,李明,Good,C.bmp,Yes,1,n,n,1051
18,22,right,female,1,2,47,李明,Bad,T.bmp,No,0,m,n,1043
18,22,right,female,1,9,48,王刚,Bad,T.bmp,No,0,m,,0
18,22,right,female,1,5,49,张伟,Good,C.bmp,No,1,m,m,803
18,22,right,female,1,4,50,张伟,Bad,T.bmp,Yes,0,n,m,715
18,22,right,female,1,4,51,张伟,Bad,T.bmp,Yes,1,n,n,532
18,22,right,female,1,7,52,王刚,Normal,S.bmp,Yes,1,n,n,580
18,22,right,female,1,1,53,李明,Good,C.bmp,Yes,1,n,n,684
18,22,right,female,1,2,54,李明,Bad,T.bmp,No,1,m,m,812
18,22,right,female,1,1,55,李明,Good,C.bmp,Yes,1,n,n,756
18,22,right,female,1,8,56,王刚,Good,C.bmp,No,1,m,m,700
18,22,right,female,1,3,57,李明,Normal,S.bmp,No,0,m,n,877
18,22,right,female,1,6,58,张伟,Normal,S.bmp,No,0,m,n,677
18,22,right,female,1,7,59,王刚,Normal,S.bmp,Yes,1,n,n,637
18,22,right,female,1,9,60,王刚,Bad,T.bmp,No,1,m,m,773
18,22,right,female,1,7,1,王刚,Normal,S.bmp,Yes,1,n,n,698
18,22,right,female,1,9,2,王刚,Bad,T.bmp,No,1,m,m,585
18,22,right,female,1,7,3,王刚,Normal,S.bmp,Yes,1,n,n,561
18,22,right,female,1,1,4,李明,Good,C.bmp,Yes,1,n,n,490
18,22,right,female,1,1,5,李明,Good,C.bmp,Yes,1,n,n,402
18,22,right,female,1,2,6,李明,Bad,T.bmp,No,1,m,m,530
18,22,right,female,1,4,7,张伟,Bad,T.bmp,Yes,1,n,n,482
18,22,right,female,1,8,8,王刚,Good,C.bmp,No,1,m,m,546
18,22,right,female,1,5,9,张伟,Good,C.bmp,No,1,m,m,874
18,22,right,female,1,6,10,张伟,Normal,S.bmp,No,1,m,m,674
18,22,right,female,1,4,11,张伟,Bad,T.bmp,Yes,1,n,n,619
18,22,right,female,1,3,12,李明,Normal,S.bmp,No,1,m,m,779
18,22,right,female,1,4,13,张伟,Bad,T.bmp,Yes,0,n,m,851
18,22,right,female,1,1,14,李明,Good,C.bmp,Yes,1,n,n,803
18,22,right,female,1,2,15,李明,Bad,T.bmp,No,1,m,m,659
18,22,right,female,1,9,16,王刚,Bad,T.bmp,No,1,m,m,667
18,22,right,female,1,6,17,张伟,Normal,S.bmp,No,1,m,m,628
18,22,right,female,1,7,18,王刚,Normal,S.bmp,Yes,1,n,n,644
18,22,right,female,1,8,19,王刚,Good,C.bmp,No,1,m,m,636
18,22,right,female,1,5,20,张伟,Good,C.bmp,No,1,m,m,812
18,22,right,female,1,7,21,王刚,Normal,S.bmp,Yes,1,n,n,644
18,22,right,female,1,3,22,李明,Normal,S.bmp,No,1,m,m,764
18,22,right,female,1,4,23,张伟,Bad,T.bmp,Yes,1,n,n,821
18,22,right,female,1,1,24,李明,Good,C.bmp,Yes,1,n,n,701
18,22,right,female,1,7,25,王刚,Normal,S.bmp,Yes,1,n,n,509
18,22,right,female,1,3,26,李明,Normal,S.bmp,No,1,m,m,581
18,22,right,female,1,4,27,张伟,Bad,T.bmp,Yes,1,n,n,821
18,22,right,female,1,6,28,张伟,Normal,S.bmp,No,1,m,m,596
18,22,right,female,1,7,29,王刚,Normal,S.bmp,Yes,1,n,n,588
18,22,right,female,1,2,30,李明,Bad,T.bmp,No,1,m,m,461
18,22,right,female,1,1,31,李明,Good,C.bmp,Yes,1,n,n,693
18,22,right,female,1,4,32,张伟,Bad,T.bmp,Yes,1,n,n,621
18,22,right,female,1,8,33,王刚,Good,C.bmp,No,0,m,n,869
18,22,right,female,1,1,34,李明,Good,C.bmp,Yes,1,n,n,829
18,22,right,female,1,9,35,王刚,Bad,T.bmp,No,0,m,n,573
18,22,right,female,1,5,36,张伟,Good,C.bmp,No,0,m,n,750
18,22,right,female,1,2,37,李明,Bad,T.bmp,No,1,m,m,678
18,22,right,female,1,5,38,张伟,Good,C.bmp,No,0,m,n,982
18,22,right,female,1,8,39,王刚,Good,C.bmp,No,1,m,m,950
18,22,right,female,1,1,40,李明,Good,C.bmp,Yes,1,n,n,718
18,22,right,female,1,1,41,李明,Good,C.bmp,Yes,1,n,n,558
18,22,right,female,1,7,42,王刚,Normal,S.bmp,Yes,0,n,m,686
18,22,right,female,1,7,43,王刚,Normal,S.bmp,Yes,1,n,n,591
18,22,right,female,1,6,44,张伟,Normal,S.bmp,No,1,m,m,695
18,22,right,female,1,9,45,王刚,Bad,T.bmp,No,1,m,m,1079
18,22,right,female,1,4,46,张伟,Bad,T.bmp,Yes,1,n,n,743
18,22,right,female,1,3,47,李明,Normal,S.bmp,No,1,m,m,743
18,22,right,female,1,4,48,张伟,Bad,T.bmp,Yes,1,n,n,575
18,22,right,female,1,1,49,李明,Good,C.bmp,Yes,1,n,n,896
18,22,right,female,1,6,50,张伟,Normal,S.bmp,No,0,m,,0
18,22,right,female,1,9,51,王刚,Bad,T.bmp,No,0,m,,0
18,22,right,female,1,4,52,张伟,Bad,T.bmp,Yes,0,n,,0
18,22,right,female,1,8,53,王刚,Good,C.bmp,No,1,m,m,1056
18,22,right,female,1,5,54,张伟,Good,C.bmp,No,1,m,m,760
18,22,right,female,1,2,55,李明,Bad,T.bmp,No,1,m,m,832
18,22,right,female,1,7,56,王刚,Normal,S.bmp,Yes,1,n,n,568
18,22,right,female,1,3,57,李明,Normal,S.bmp,No,1,m,m,504
18,22,right,female,1,7,58,王刚,Normal,S.bmp,Yes,1,n,n,560
18,22,right,female,1,4,59,张伟,Bad,T.bmp,Yes,0,n,m,616
18,22,right,female,1,1,60,李明,Good,C.bmp,Yes,1,n,n,720
18,22,right,female,1,2,1,李明,Bad,T.bmp,No,0,m,n,579
18,22,right,female,1,7,2,王刚,Normal,S.bmp,Yes,1,n,n,564
18,22,right,female,1,3,3,李明,Normal,S.bmp,No,1,m,m,692
18,22,right,female,1,1,4,李明,Good,C.bmp,Yes,1,n,n,692
18,22,right,female,1,4,5,张伟,Bad,T.bmp,Yes,1,n,n,564
18,22,right,female,1,5,6,张伟,Good,C.bmp,No,1,m,m,540
18,22,right,female,1,4,7,张伟,Bad,T.bmp,Yes,1,n,n,700
18,22,right,female,1,7,8,王刚,Normal,S.bmp,Yes,1,n,n,676
18,22,right,female,1,6,9,张伟,Normal,S.bmp,No,1,m,m,613
18,22,right,female,1,1,10,李明,Good,C.bmp,Yes,1,n,n,597
18,22,right,female,1,9,11,王刚,Bad,T.bmp,No,1,m,m,725
18,22,right,female,1,8,12,王刚,Good,C.bmp,No,1,m,m,605
18,22,right,female,1,3,13,李明,Normal,S.bmp,No,1,m,m,765
18,22,right,female,1,1,14,李明,Good,C.bmp,Yes,1,n,n,781
18,22,right,female,1,5,15,张伟,Good,C.bmp,No,1,m,m,693
18,22,right,female,1,4,16,张伟,Bad,T.bmp,Yes,1,n,n,477
18,22,right,female,1,7,17,王刚,Normal,S.bmp,Yes,1,n,n,533
18,22,right,female,1,2,18,李明,Bad,T.bmp,No,1,m,m,645
18,22,right,female,1,8,19,王刚,Good,C.bmp,No,1,m,m,653
18,22,right,female,1,1,20,李明,Good,C.bmp,Yes,1,n,n,805
18,22,right,female,1,7,21,王刚,Normal,S.bmp,Yes,1,n,n,670
18,22,right,female,1,6,22,张伟,Normal,S.bmp,No,1,m,m,710
18,22,right,female,1,4,23,张伟,Bad,T.bmp,Yes,1,n,n,462
18,22,right,female,1,9,24,王刚,Bad,T.bmp,No,1,m,m,550
18,22,right,female,1,8,25,王刚,Good,C.bmp,No,1,m,m,718
18,22,right,female,1,1,26,李明,Good,C.bmp,Yes,1,n,n,494
18,22,right,female,1,6,27,张伟,Normal,S.bmp,No,1,m,m,614
18,22,right,female,1,7,28,王刚,Normal,S.bmp,Yes,1,n,n,527
18,22,right,female,1,4,29,张伟,Bad,T.bmp,Yes,1,n,n,543
18,22,right,female,1,3,30,李明,Normal,S.bmp,No,1,m,m,439
18,22,right,female,1,5,31,张伟,Good,C.bmp,No,0,m,n,607
18,22,right,female,1,9,32,王刚,Bad,T.bmp,No,1,m,m,943
18,22,right,female,1,7,33,王刚,Normal,S.bmp,Yes,1,n,n,715
18,22,right,female,1,1,34,李明,Good,C.bmp,Yes,1,n,n,924
18,22,right,female,1,2,35,李明,Bad,T.bmp,No,1,m,m,588
18,22,right,female,1,4,36,张伟,Bad,T.bmp,Yes,1,n,n,652
18,22,right,female,1,1,37,李明,Good,C.bmp,Yes,1,n,n,780
18,22,right,female,1,7,38,王刚,Normal,S.bmp,Yes,1,n,n,636
18,22,right,female,1,7,39,王刚,Normal,S.bmp,Yes,1,n,n,492
18,22,right,female,1,3,40,李明,Normal,S.bmp,No,1,m,m,524
18,22,right,female,1,1,41,李明,Good,C.bmp,Yes,1,n,n,860
18,22,right,female,1,9,42,王刚,Bad,T.bmp,No,1,m,m,796
18,22,right,female,1,4,43,张伟,Bad,T.bmp,Yes,1,n,n,564
18,22,right,female,1,6,44,张伟,Normal,S.bmp,No,1,m,m,468
18,22,right,female,1,2,45,李明,Bad,T.bmp,No,1,m,m,780
18,22,right,female,1,5,46,张伟,Good,C.bmp,No,1,m,m,756
18,22,right,female,1,8,47,王刚,Good,C.bmp,No,1,m,m,589
18,22,right,female,1,4,48,张伟,Bad,T.bmp,Yes,1,n,n,909
18,22,right,female,1,4,49,张伟,Bad,T.bmp,Yes,1,n,n,501
18,22,right,female,1,2,50,李明,Bad,T.bmp,No,1,m,m,541
18,22,right,female,1,4,51,张伟,Bad,T.bmp,Yes,1,n,n,541
18,22,right,female,1,5,52,张伟,Good,C.bmp,No,1,m,m,653
18,22,right,female,1,1,53,李明,Good,C.bmp,Yes,0,n,m,606
18,22,right,female,1,9,54,王刚,Bad,T.bmp,No,1,m,m,758
18,22,right,female,1,6,55,张伟,Normal,S.bmp,No,1,m,m,758
18,22,right,female,1,7,56,王刚,Normal,S.bmp,Yes,1,n,n,638
18,22,right,female,1,8,57,王刚,Good,C.bmp,No,1,m,m,662
18,22,right,female,1,3,58,李明,Normal,S.bmp,No,1,m,m,806
18,22,right,female,1,1,59,李明,Good,C.bmp,Yes,1,n,n,686
18,22,right,female,1,7,60,王刚,Normal,S.bmp,Yes,1,n,n,599
18,22,right,female,1,4,1,张伟,Bad,T.bmp,Yes,1,n,n,684
18,22,right,female,1,9,2,王刚,Bad,T.bmp,No,1,m,m,843
18,22,right,female,1,4,3,张伟,Bad,T.bmp,Yes,1,n,n,603
18,22,right,female,1,7,4,王刚,Normal,S.bmp,Yes,0,n,m,547
18,22,right,female,1,2,5,李明,Bad,T.bmp,No,1,m,m,747
18,22,right,female,1,6,6,张伟,Normal,S.bmp,No,1,m,m,692
18,22,right,female,1,1,7,李明,Good,C.bmp,Yes,1,n,n,612
18,22,right,female,1,7,8,王刚,Normal,S.bmp,Yes,1,n,n,700
18,22,right,female,1,8,9,王刚,Good,C.bmp,No,1,m,m,620
18,22,right,female,1,1,10,李明,Good,C.bmp,Yes,1,n,n,684
18,22,right,female,1,5,11,张伟,Good,C.bmp,No,1,m,m,588
18,22,right,female,1,3,12,李明,Normal,S.bmp,No,1,m,m,692
18,22,right,female,1,1,13,李明,Good,C.bmp,Yes,1,n,n,885
18,22,right,female,1,7,14,王刚,Normal,S.bmp,Yes,1,n,n,589
18,22,right,female,1,5,15,张伟,Good,C.bmp,No,1,m,m,677
18,22,right,female,1,8,16,王刚,Good,C.bmp,No,0,m,,0
18,22,right,female,1,6,17,张伟,Normal,S.bmp,No,1,m,m,1077
18,22,right,female,1,4,18,张伟,Bad,T.bmp,Yes,0,n,m,757
18,22,right,female,1,9,19,王刚,Bad,T.bmp,No,1,m,m,686
18,22,right,female,1,7,20,王刚,Normal,S.bmp,Yes,1,n,n,750
18,22,right,female,1,2,21,李明,Bad,T.bmp,No,1,m,m,526
18,22,right,female,1,1,22,李明,Good,C.bmp,Yes,1,n,n,534
18,22,right,female,1,3,23,李明,Normal,S.bmp,No,1,m,m,638
18,22,right,female,1,4,24,张伟,Bad,T.bmp,Yes,1,n,n,558
18,22,right,female,1,6,25,张伟,Normal,S.bmp,No,1,m,m,566
18,22,right,female,1,9,26,王刚,Bad,T.bmp,No,1,m,m,934
18,22,right,female,1,2,27,李明,Bad,T.bmp,No,0,m,n,670
18,22,right,female,1,3,28,李明,Normal,S.bmp,No,1,m,m,782
18,22,right,female,1,1,29,李明,Good,C.bmp,Yes,1,n,n,582
18,22,right,female,1,1,30,李明,Good,C.bmp,Yes,1,n,n,614
18,22,right,female,1,7,31,王刚,Normal,S.bmp,Yes,0,n,m,494
18,22,right,female,1,4,32,张伟,Bad,T.bmp,Yes,1,n,n,919
18,22,right,female,1,4,33,张伟,Bad,T.bmp,Yes,0,n,m,583
18,22,right,female,1,5,34,张伟,Good,C.bmp,No,0,m,n,799
18,22,right,female,1,8,35,王刚,Good,C.bmp,No,0,m,,0
18,22,right,female,1,7,36,王刚,Normal,S.bmp,Yes,1,n,n,799
18,22,right,female,1,4,37,张伟,Bad,T.bmp,Yes,1,n,n,791
18,22,right,female,1,5,38,张伟,Good,C.bmp,No,1,m,m,807
18,22,right,female,1,9,39,王刚,Bad,T.bmp,No,0,m,,0
18,22,right,female,1,3,40,李明,Normal,S.bmp,No,0,m,,0
18,22,right,female,1,8,41,王刚,Good,C.bmp,No,0,m,n,856
18,22,right,female,1,7,42,王刚,Normal,S.bmp,Yes,1,n,n,720
18,22,right,female,1,1,43,李明,Good,C.bmp,Yes,0,n,m,744
18,22,right,female,1,2,44,李明,Bad,T.bmp,No,1,m,m,718
18,22,right,female,1,6,45,张伟,Normal,S.bmp,No,1,m,m,783
18,22,right,female,1,7,46,王刚,Normal,S.bmp,Yes,1,n,n,815
18,22,right,female,1,1,47,李明,Good,C.bmp,Yes,0,n,,0
18,22,right,female,1,4,48,张伟,Bad,T.bmp,Yes,1,n,n,679
18,22,right,female,1,1,49,李明,Good,C.bmp,Yes,1,n,n,863
18,22,right,female,1,3,50,李明,Normal,S.bmp,No,1,m,m,591
18,22,right,female,1,1,51,李明,Good,C.bmp,Yes,0,n,,0
18,22,right,female,1,6,52,张伟,Normal,S.bmp,No,1,m,m,1040
18,22,right,female,1,2,53,李明,Bad,T.bmp,No,1,m,m,823
18,22,right,female,1,5,54,张伟,Good,C.bmp,No,1,m,m,783
18,22,right,female,1,7,55,王刚,Normal,S.bmp,Yes,1,n,n,551
18,22,right,female,1,7,56,王刚,Normal,S.bmp,Yes,1,n,n,551
18,22,right,female,1,8,57,王刚,Good,C.bmp,No,1,m,m,647
18,22,right,female,1,4,58,张伟,Bad,T.bmp,Yes,1,n,n,640
18,22,right,female,1,4,59,张伟,Bad,T.bmp,Yes,1,n,n,528
18,22,right,female,1,9,60,王刚,Bad,T.bmp,No,1,m,m,496
18,22,right,female,1,3,1,李明,Normal,S.bmp,No,1,m,m,917
18,22,right,female,1,1,2,李明,Good,C.bmp,Yes,1,n,n,613
18,22,right,female,1,7,3,王刚,Normal,S.bmp,Yes,1,n,n,661
18,22,right,female,1,7,4,王刚,Normal,S.bmp,Yes,1,n,n,470
18,22,right,female,1,2,5,李明,Bad,T.bmp,No,1,m,m,638
18,22,right,female,1,8,6,王刚,Good,C.bmp,No,1,m,m,838
18,22,right,female,1,4,7,张伟,Bad,T.bmp,Yes,1,n,n,590
18,22,right,female,1,6,8,张伟,Normal,S.bmp,No,1,m,m,806
18,22,right,female,1,4,9,张伟,Bad,T.bmp,Yes,1,n,n,542
18,22,right,female,1,5,10,张伟,Good,C.bmp,No,1,m,m,526
18,22,right,female,1,9,11,王刚,Bad,T.bmp,No,1,m,m,719
18,22,right,female,1,1,12,李明,Good,C.bmp,Yes,1,n,n,663
18,22,right,female,1,7,13,王刚,Normal,S.bmp,Yes,1,n,n,830
18,22,right,female,1,5,14,张伟,Good,C.bmp,No,1,m,m,654
18,22,right,female,1,4,15,张伟,Bad,T.bmp,Yes,1,n,n,694
18,22,right,female,1,8,16,王刚,Good,C.bmp,No,1,m,m,830
18,22,right,female,1,3,17,李明,Normal,S.bmp,No,1,m,m,695
18,22,right,female,1,9,18,王刚,Bad,T.bmp,No,1,m,m,679
18,22,right,female,1,1,19,李明,Good,C.bmp,Yes,1,n,n,535
18,22,right,female,1,1,20,李明,Good,C.bmp,Yes,0,n,m,559
18,22,right,female,1,2,21,李明,Bad,T.bmp,No,1,m,m,799
18,22,right,female,1,7,22,王刚,Normal,S.bmp,Yes,1,n,n,543
18,22,right,female,1,6,23,张伟,Normal,S.bmp,No,1,m,m,863
18,22,right,female,1,4,24,张伟,Bad,T.bmp,Yes,1,n,n,728
18,22,right,female,1,8,25,王刚,Good,C.bmp,No,1,m,m,704
18,22,right,female,1,5,26,张伟,Good,C.bmp,No,1,m,m,472
18,22,right,female,1,7,27,王刚,Normal,S.bmp,Yes,1,n,n,584
18,22,right,female,1,1,28,李明,Good,C.bmp,Yes,1,n,n,680
18,22,right,female,1,3,29,李明,Normal,S.bmp,No,1,m,m,552
18,22,right,female,1,1,30,李明,Good,C.bmp,Yes,0,n,m,681
18,22,right,female,1,4,31,张伟,Bad,T.bmp,Yes,1,n,n,921
18,22,right,female,1,7,32,王刚,Normal,S.bmp,Yes,1,n,n,577
18,22,right,female,1,4,33,张伟,Bad,T.bmp,Yes,1,n,n,777
18,22,right,female,1,9,34,王刚,Bad,T.bmp,No,1,m,m,609
18,22,right,female,1,6,35,张伟,Normal,S.bmp,No,1,m,m,1049
18,22,right,female,1,2,36,李明,Bad,T.bmp,No,1,m,m,930
18,22,right,female,1,2,37,李明,Bad,T.bmp,No,1,m,m,530
18,22,right,female,1,6,38,张伟,Normal,S.bmp,No,1,m,m,650
18,22,right,female,1,3,39,李明,Normal,S.bmp,No,1,m,m,610
18,22,right,female,1,4,40,张伟,Bad,T.bmp,Yes,0,n,m,817
18,22,right,female,1,4,41,张伟,Bad,T.bmp,Yes,1,n,n,681
18,22,right,female,1,7,42,王刚,Normal,S.bmp,Yes,1,n,n,577
18,22,right,female,1,5,43,张伟,Good,C.bmp,No,1,m,m,850
18,22,right,female,1,7,44,王刚,Normal,S.bmp,Yes,1,n,n,970
18,22,right,female,1,1,45,李明,Good,C.bmp,Yes,1,n,n,1090
18,22,right,female,1,8,46,王刚,Good,C.bmp,No,1,m,m,618
18,22,right,female,1,1,47,李明,Good,C.bmp,Yes,1,n,n,738
18,22,right,female,1,9,48,王刚,Bad,T.bmp,No,1,m,m,674
18,22,right,female,1,7,49,王刚,Normal,S.bmp,Yes,1,n,n,571
18,22,right,female,1,2,50,李明,Bad,T.bmp,No,1,m,m,579
18,22,right,female,1,5,51,张伟,Good,C.bmp,No,1,m,m,827
18,22,right,female,1,6,52,张伟,Normal,S.bmp,No,1,m,m,723
18,22,right,female,1,9,53,王刚,Bad,T.bmp,No,1,m,m,715
18,22,right,female,1,1,54,李明,Good,C.bmp,Yes,1,n,n,867
18,22,right,female,1,7,55,王刚,Normal,S.bmp,Yes,1,n,n,891
18,22,right,female,1,8,56,王刚,Good,C.bmp,No,1,m,m,668
18,22,right,female,1,4,57,张伟,Bad,T.bmp,Yes,1,n,n,604
18,22,right,female,1,3,58,李明,Normal,S.bmp,No,1,m,m,860
18,22,right,female,1,4,59,张伟,Bad,T.bmp,Yes,1,n,n,796
18,22,right,female,1,1,60,李明,Good,C.bmp,Yes,1,n,n,868
18,22,right,female,1,6,1,张伟,Normal,S.bmp,No,1,m,m,1046
18,22,right,female,1,3,2,李明,Normal,S.bmp,No,1,m,m,735
18,22,right,female,1,7,3,王刚,Normal,S.bmp,Yes,1,n,n,575
18,22,right,female,1,1,4,李明,Good,C.bmp,Yes,1,n,n,631
18,22,right,female,1,9,5,王刚,Bad,T.bmp,No,1,m,m,895
18,22,right,female,1,5,6,张伟,Good,C.bmp,No,1,m,m,895
18,22,right,female,1,2,7,李明,Bad,T.bmp,No,1,m,m,671
18,22,right,female,1,4,8,张伟,Bad,T.bmp,Yes,1,n,n,1095
18,22,right,female,1,1,9,李明,Good,C.bmp,Yes,1,n,n,624
18,22,right,female,1,4,10,张伟,Bad,T.bmp,Yes,0,n,m,576
18,22,right,female,1,8,11,王刚,Good,C.bmp,No,1,m,m,848
