Subject,Age,Handedness,Sex,BlockList.Sample,SubTrial,Label,Target,morality,Identity,YesNoResp,Target.RESP,Target.CRESP,Target.ACC,Target.RT
4250,20,right,female,,1,坏人,sqro.bmp,Bad,Other,Yes,,m,0,0
4250,20,right,female,,2,坏人,tras.bmp,Good,Self,No,,k,0,0
4250,20,right,female,,3,好人,trao.bmp,Good,Other,Yes,,m,0,0
4250,20,right,female,,4,坏人,sqrs.bmp,Bad,Self,Yes,m,m,1,339
4250,20,right,female,,5,常人,trao.bmp,Good,Other,No,m,k,0,340
4250,20,right,female,,6,好人,sqro.bmp,Bad,Other,No,,k,0,0
4250,20,right,female,,7,好人,tras.bmp,Good,Self,Yes,k,m,0,302
4250,20,right,female,,8,坏人,ciro.bmp,Ord,Other,No,m,k,0,282
4250,20,right,female,,9,好人,tras.bmp,Good,Self,Yes,k,m,0,297
4250,20,right,female,,10,常人,sqro.bmp,Bad,Other,No,m,k,0,286
4250,20,right,female,,11,好人,sqrs.bmp,Bad,Self,No,m,k,0,265
4250,20,right,female,,12,好人,ciro.bmp,Ord,Other,No,k,k,1,296
4250,20,right,female,,13,常人,ciro.bmp,Ord,Other,Yes,,m,0,0
4250,20,right,female,,14,坏人,sqrs.bmp,Bad,Self,Yes,k,m,0,299
4250,20,right,female,,15,常人,ciro.bmp,Ord,Other,Yes,m,m,1,430
4250,20,right,female,,16,坏人,trao.bmp,Good,Other,No,m,k,0,299
4250,20,right,female,,17,好人,trao.bmp,Good,Other,Yes,k,m,0,250
4250,20,right,female,,18,常人,sqrs.bmp,Bad,Self,No,m,k,0,226
4250,20,right,female,,19,常人,cirs.bmp,Ord,Self,Yes,m,m,1,223
4250,20,right,female,,20,坏人,cirs.bmp,Ord,Self,No,,k,0,0
4250,20,right,female,,21,好人,cirs.bmp,Ord,Self,No,m,k,0,277
4250,20,right,female,,22,常人,cirs.bmp,Ord,Self,Yes,k,m,0,441
4250,20,right,female,,23,坏人,sqro.bmp,Bad,Other,Yes,m,m,1,274
4250,20,right,female,,24,常人,tras.bmp,Good,Self,No,m,k,0,332
4250,20,right,female,,25,好人,sqro.bmp,Bad,Other,No,m,k,0,252
4250,20,right,female,,26,常人,sqro.bmp,Bad,Other,No,k,k,1,225
4250,20,right,female,,27,常人,sqrs.bmp,Bad,Self,No,k,k,1,320
4250,20,right,female,,28,坏人,cirs.bmp,Ord,Self,No,k,k,1,254
4250,20,right,female,,29,坏人,sqrs.bmp,Bad,Self,Yes,k,m,0,270
4250,20,right,female,,30,坏人,sqro.bmp,Bad,Other,Yes,m,m,1,262
4250,20,right,female,,31,好人,ciro.bmp,Ord,Other,No,m,k,0,289
4250,20,right,female,,32,好人,trao.bmp,Good,Other,Yes,k,m,0,235
4250,20,right,female,,33,常人,ciro.bmp,Ord,Other,Yes,,m,0,0
4250,20,right,female,,34,坏人,sqro.bmp,Bad,Other,Yes,,m,0,0
4250,20,right,female,,35,好人,tras.bmp,Good,Self,Yes,m,m,1,964
4250,20,right,female,,36,常人,cirs.bmp,Ord,Self,Yes,m,m,1,364
4250,20,right,female,,37,常人,cirs.bmp,Ord,Self,Yes,m,m,1,308
4250,20,right,female,,38,好人,trao.bmp,Good,Other,Yes,m,m,1,577
4250,20,right,female,,39,好人,tras.bmp,Good,Self,Yes,m,m,1,402
4250,20,right,female,,40,坏人,trao.bmp,Good,Other,No,m,k,0,296
4250,20,right,female,,41,坏人,ciro.bmp,Ord,Other,No,k,k,1,460
4250,20,right,female,,42,好人,cirs.bmp,Ord,Self,No,k,k,1,323
4250,20,right,female,,43,好人,sqrs.bmp,Bad,Self,No,k,k,1,271
4250,20,right,female,,44,常人,trao.bmp,Good,Other,No,k,k,1,241
4250,20,right,female,,45,坏人,sqrs.bmp,Bad,Self,Yes,k,m,0,238
4250,20,right,female,,46,常人,tras.bmp,Good,Self,No,m,k,0,238
4250,20,right,female,,47,常人,ciro.bmp,Ord,Other,Yes,k,m,0,224
4250,20,right,female,,48,坏人,tras.bmp,Good,Self,No,m,k,0,204
4250,20,right,female,,49,常人,sqro.bmp,Bad,Other,No,m,k,0,303
4250,20,right,female,,50,坏人,sqrs.bmp,Bad,Self,Yes,k,m,0,891
4250,20,right,female,,51,坏人,ciro.bmp,Ord,Other,No,m,k,0,286
4250,20,right,female,,52,常人,trao.bmp,Good,Other,No,k,k,1,217
4250,20,right,female,,53,坏人,trao.bmp,Good,Other,No,k,k,1,233
4250,20,right,female,,54,常人,cirs.bmp,Ord,Self,Yes,k,m,0,234
4250,20,right,female,,55,坏人,sqro.bmp,Bad,Other,Yes,,m,0,0
4250,20,right,female,,56,坏人,sqro.bmp,Bad,Other,Yes,m,m,1,835
4250,20,right,female,,57,常人,cirs.bmp,Ord,Self,Yes,m,m,1,232
4250,20,right,female,,58,好人,tras.bmp,Good,Self,Yes,m,m,1,206
4250,20,right,female,,59,常人,ciro.bmp,Ord,Other,Yes,m,m,1,218
4250,20,right,female,,60,好人,trao.bmp,Good,Other,Yes,m,m,1,230
4250,20,right,female,,61,常人,sqrs.bmp,Bad,Self,No,m,k,0,234
4250,20,right,female,,62,坏人,sqrs.bmp,Bad,Self,Yes,k,m,0,230
4250,20,right,female,,63,好人,sqrs.bmp,Bad,Self,No,m,k,0,219
4250,20,right,female,,64,好人,cirs.bmp,Ord,Self,No,k,k,1,222
4250,20,right,female,,65,常人,tras.bmp,Good,Self,No,k,k,1,302
4250,20,right,female,,66,好人,ciro.bmp,Ord,Other,No,k,k,1,202
4250,20,right,female,,67,坏人,tras.bmp,Good,Self,No,k,k,1,209
4250,20,right,female,,68,好人,trao.bmp,Good,Other,Yes,k,m,0,322
4250,20,right,female,,69,常人,ciro.bmp,Ord,Other,Yes,m,m,1,216
4250,20,right,female,,70,坏人,cirs.bmp,Ord,Self,No,m,k,0,263
4250,20,right,female,,71,好人,tras.bmp,Good,Self,Yes,k,m,0,194
4250,20,right,female,,72,好人,sqro.bmp,Bad,Other,No,m,k,0,94
4250,20,right,female,,73,坏人,ciro.bmp,Ord,Other,No,m,k,0,223
4250,20,right,female,,74,好人,trao.bmp,Good,Other,Yes,k,m,0,224
4250,20,right,female,,75,好人,tras.bmp,Good,Self,Yes,m,m,1,272
4250,20,right,female,,76,常人,tras.bmp,Good,Self,No,m,k,0,263
4250,20,right,female,,77,好人,cirs.bmp,Ord,Self,No,k,k,1,211
4250,20,right,female,,78,常人,sqrs.bmp,Bad,Self,No,k,k,1,229
4250,20,right,female,,79,坏人,sqrs.bmp,Bad,Self,Yes,k,m,0,234
4250,20,right,female,,80,常人,ciro.bmp,Ord,Other,Yes,m,m,1,256
4250,20,right,female,,81,坏人,trao.bmp,Good,Other,No,m,k,0,285
4250,20,right,female,,82,常人,cirs.bmp,Ord,Self,Yes,m,m,1,1052
4250,20,right,female,,83,好人,tras.bmp,Good,Self,Yes,m,m,1,321
4250,20,right,female,,84,常人,trao.bmp,Good,Other,No,m,k,0,339
4250,20,right,female,,85,好人,ciro.bmp,Ord,Other,No,k,k,1,379
4250,20,right,female,,86,好人,sqrs.bmp,Bad,Self,No,k,k,1,403
4250,20,right,female,,87,坏人,sqro.bmp,Bad,Other,Yes,k,m,0,389
4250,20,right,female,,88,常人,cirs.bmp,Ord,Self,Yes,m,m,1,500
4250,20,right,female,,89,坏人,cirs.bmp,Ord,Self,No,k,k,1,686
4250,20,right,female,,90,坏人,tras.bmp,Good,Self,No,m,k,0,625
4250,20,right,female,,91,常人,sqro.bmp,Bad,Other,No,k,k,1,641
4250,20,right,female,,92,好人,trao.bmp,Good,Other,Yes,m,m,1,819
4250,20,right,female,,93,坏人,sqrs.bmp,Bad,Self,Yes,m,m,1,746
4250,20,right,female,,94,常人,ciro.bmp,Ord,Other,Yes,m,m,1,941
4250,20,right,female,,95,坏人,sqro.bmp,Bad,Other,Yes,,m,0,0
4250,20,right,female,,96,好人,sqro.bmp,Bad,Other,No,,k,0,0
4250,20,right,female,,97,坏人,cirs.bmp,Ord,Self,No,m,k,0,1054
4250,20,right,female,,98,坏人,sqrs.bmp,Bad,Self,Yes,,m,0,0
4250,20,right,female,,99,好人,sqro.bmp,Bad,Other,No,k,k,1,805
4250,20,right,female,,100,坏人,sqro.bmp,Bad,Other,Yes,k,m,0,999
4250,20,right,female,,101,坏人,sqro.bmp,Bad,Other,Yes,k,m,0,622
4250,20,right,female,,102,好人,trao.bmp,Good,Other,Yes,k,m,0,760
4250,20,right,female,,103,常人,ciro.bmp,Ord,Other,Yes,m,m,1,330
4250,20,right,female,,104,常人,tras.bmp,Good,Self,No,m,k,0,504
4250,20,right,female,,105,好人,tras.bmp,Good,Self,Yes,,m,0,0
4250,20,right,female,,106,常人,sqrs.bmp,Bad,Self,No,k,k,1,976
4250,20,right,female,,107,坏人,ciro.bmp,Ord,Other,No,m,k,0,839
4250,20,right,female,,108,坏人,sqrs.bmp,Bad,Self,Yes,k,m,0,830
4250,20,right,female,,109,常人,ciro.bmp,Ord,Other,Yes,m,m,1,748
4250,20,right,female,,110,常人,cirs.bmp,Ord,Self,Yes,m,m,1,752
4250,20,right,female,,111,好人,sqrs.bmp,Bad,Self,No,k,k,1,1065
4250,20,right,female,,112,好人,trao.bmp,Good,Other,Yes,k,m,0,949
4250,20,right,female,,113,好人,tras.bmp,Good,Self,Yes,k,m,0,687
4250,20,right,female,,114,坏人,tras.bmp,Good,Self,No,m,k,0,341
4250,20,right,female,,115,常人,cirs.bmp,Ord,Self,Yes,m,m,1,666
4250,20,right,female,,116,常人,trao.bmp,Good,Other,No,m,k,0,934
4250,20,right,female,,117,好人,cirs.bmp,Ord,Self,No,k,k,1,986
4250,20,right,female,,118,坏人,trao.bmp,Good,Other,No,k,k,1,1095
4250,20,right,female,,119,常人,sqro.bmp,Bad,Other,No,m,k,0,998
4250,20,right,female,,120,好人,ciro.bmp,Ord,Other,No,,k,0,0
4250,20,right,female,,121,好人,cirs.bmp,Ord,Self,No,,k,0,0
4250,20,right,female,,122,常人,cirs.bmp,Ord,Self,Yes,m,m,1,884
4250,20,right,female,,123,常人,ciro.bmp,Ord,Other,Yes,m,m,1,644
4250,20,right,female,,124,好人,tras.bmp,Good,Self,Yes,k,m,0,955
4250,20,right,female,,125,常人,cirs.bmp,Ord,Self,Yes,m,m,1,802
4250,20,right,female,,126,坏人,sqro.bmp,Bad,Other,Yes,m,m,1,1015
4250,20,right,female,,127,好人,trao.bmp,Good,Other,Yes,k,m,0,970
4250,20,right,female,,128,好人,tras.bmp,Good,Self,Yes,m,m,1,677
4250,20,right,female,,129,好人,sqro.bmp,Bad,Other,No,k,k,1,747
4250,20,right,female,,130,常人,tras.bmp,Good,Self,No,m,k,0,898
4250,20,right,female,,131,坏人,sqro.bmp,Bad,Other,Yes,m,m,1,761
4250,20,right,female,,132,坏人,cirs.bmp,Ord,Self,No,k,k,1,996
4250,20,right,female,,133,坏人,sqrs.bmp,Bad,Self,Yes,k,m,0,766
4250,20,right,female,,134,常人,sqro.bmp,Bad,Other,No,k,k,1,810
4250,20,right,female,,135,坏人,ciro.bmp,Ord,Other,No,,k,0,0
4250,20,right,female,,136,好人,trao.bmp,Good,Other,Yes,,m,0,0
4250,20,right,female,,137,好人,sqrs.bmp,Bad,Self,No,,k,0,0
4250,20,right,female,,138,好人,ciro.bmp,Ord,Other,No,,k,0,0
4250,20,right,female,,139,常人,trao.bmp,Good,Other,No,,k,0,0
4250,20,right,female,,140,坏人,sqrs.bmp,Bad,Self,Yes,,m,0,0
4250,20,right,female,,141,坏人,trao.bmp,Good,Other,No,,k,0,0
4250,20,right,female,,142,常人,sqrs.bmp,Bad,Self,No,m,k,0,312
4250,20,right,female,,143,坏人,tras.bmp,Good,Self,No,,k,0,0
4250,20,right,female,,144,常人,ciro.bmp,Ord,Other,Yes,,m,0,0
4250,20,right,female,,145,好人,tras.bmp,Good,Self,Yes,k,m,0,892
4250,20,right,female,,146,好人,sqrs.bmp,Bad,Self,No,,k,0,0
4250,20,right,female,,147,坏人,cirs.bmp,Ord,Self,No,k,k,1,924
4250,20,right,female,,148,好人,trao.bmp,Good,Other,Yes,k,m,0,1063
4250,20,right,female,,149,常人,sqrs.bmp,Bad,Self,No,k,k,1,888
4250,20,right,female,,150,坏人,sqro.bmp,Bad,Other,Yes,m,m,1,1003
4250,20,right,female,,151,好人,tras.bmp,Good,Self,Yes,m,m,1,1025
4250,20,right,female,,152,常人,cirs.bmp,Ord,Self,Yes,m,m,1,1098
4250,20,right,female,,153,常人,tras.bmp,Good,Self,No,k,k,1,945
4250,20,right,female,,154,坏人,sqrs.bmp,Bad,Self,Yes,m,m,1,848
4250,20,right,female,,155,坏人,tras.bmp,Good,Self,No,k,k,1,1008
4250,20,right,female,,156,坏人,sqro.bmp,Bad,Other,Yes,k,m,0,836
4250,20,right,female,,157,好人,trao.bmp,Good,Other,Yes,m,m,1,999
4250,20,right,female,,158,坏人,trao.bmp,Good,Other,No,k,k,1,672
4250,20,right,female,,159,坏人,ciro.bmp,Ord,Other,No,k,k,1,918
4250,20,right,female,,160,常人,cirs.bmp,Ord,Self,Yes,m,m,1,846
4250,20,right,female,,161,坏人,sqrs.bmp,Bad,Self,Yes,k,m,0,635
4250,20,right,female,,162,好人,sqro.bmp,Bad,Other,No,m,k,0,913
4250,20,right,female,,163,好人,ciro.bmp,Ord,Other,No,k,k,1,768
4250,20,right,female,,164,常人,sqro.bmp,Bad,Other,No,k,k,1,1011
4250,20,right,female,,165,好人,cirs.bmp,Ord,Self,No,k,k,1,921
4250,20,right,female,,166,常人,trao.bmp,Good,Other,No,k,k,1,843
4250,20,right,female,,167,常人,ciro.bmp,Ord,Other,Yes,m,m,1,862
4250,20,right,female,,168,常人,ciro.bmp,Ord,Other,Yes,m,m,1,544
4250,20,right,female,1,1,坏人,cirs.bmp,Ord,Self,No,,k,0,0
4250,20,right,female,1,2,常人,ciro.bmp,Ord,Other,Yes,k,m,0,774
4250,20,right,female,1,3,好人,trao.bmp,Good,Other,Yes,m,m,1,1024
4250,20,right,female,1,4,好人,ciro.bmp,Ord,Other,No,,k,0,0
4250,20,right,female,1,5,常人,sqro.bmp,Bad,Other,No,k,k,1,1082
4250,20,right,female,1,6,坏人,ciro.bmp,Ord,Other,No,k,k,1,687
4250,20,right,female,1,7,常人,cirs.bmp,Ord,Self,Yes,k,m,0,532
4250,20,right,female,1,8,坏人,tras.bmp,Good,Self,No,k,k,1,1016
4250,20,right,female,1,9,好人,cirs.bmp,Ord,Self,No,k,k,1,800
4250,20,right,female,1,10,好人,tras.bmp,Good,Self,Yes,k,m,0,596
4250,20,right,female,1,11,坏人,sqrs.bmp,Bad,Self,Yes,k,m,0,683
4250,20,right,female,1,12,坏人,sqrs.bmp,Bad,Self,Yes,m,m,1,441
4250,20,right,female,1,13,常人,ciro.bmp,Ord,Other,Yes,m,m,1,774
4250,20,right,female,1,14,坏人,sqro.bmp,Bad,Other,Yes,m,m,1,730
4250,20,right,female,1,15,常人,tras.bmp,Good,Self,No,k,k,1,798
4250,20,right,female,1,16,常人,trao.bmp,Good,Other,No,k,k,1,982
4250,20,right,female,1,17,好人,tras.bmp,Good,Self,Yes,k,m,0,628
4250,20,right,female,1,18,好人,sqro.bmp,Bad,Other,No,,k,0,0
4250,20,right,female,1,19,好人,trao.bmp,Good,Other,Yes,,m,0,0
4250,20,right,female,1,20,坏人,trao.bmp,Good,Other,No,k,k,1,625
4250,20,right,female,1,21,常人,sqrs.bmp,Bad,Self,No,k,k,1,914
4250,20,right,female,1,22,常人,cirs.bmp,Ord,Self,Yes,m,m,1,759
4250,20,right,female,1,23,好人,sqrs.bmp,Bad,Self,No,m,k,0,782
4250,20,right,female,1,24,坏人,sqro.bmp,Bad,Other,Yes,m,m,1,953
4250,20,right,female,1,25,常人,ciro.bmp,Ord,Other,Yes,m,m,1,708
4250,20,right,female,1,26,坏人,cirs.bmp,Ord,Self,No,k,k,1,788
4250,20,right,female,1,27,坏人,sqro.bmp,Bad,Other,Yes,k,m,0,792
4250,20,right,female,1,28,坏人,sqrs.bmp,Bad,Self,Yes,m,m,1,871
4250,20,right,female,1,29,好人,sqro.bmp,Bad,Other,No,k,k,1,969
4250,20,right,female,1,30,坏人,sqro.bmp,Bad,Other,Yes,m,m,1,928
4250,20,right,female,1,31,常人,ciro.bmp,Ord,Other,Yes,m,m,1,732
4250,20,right,female,1,32,坏人,sqrs.bmp,Bad,Self,Yes,k,m,0,856
4250,20,right,female,1,33,好人,tras.bmp,Good,Self,Yes,m,m,1,829
4250,20,right,female,1,34,常人,cirs.bmp,Ord,Self,Yes,m,m,1,666
4250,20,right,female,1,35,常人,trao.bmp,Good,Other,No,k,k,1,963
4250,20,right,female,1,36,好人,trao.bmp,Good,Other,Yes,m,m,1,823
4250,20,right,female,1,37,好人,trao.bmp,Good,Other,Yes,m,m,1,755
4250,20,right,female,1,38,好人,sqrs.bmp,Bad,Self,No,k,k,1,679
4250,20,right,female,1,39,常人,tras.bmp,Good,Self,No,k,k,1,1013
4250,20,right,female,1,40,好人,ciro.bmp,Ord,Other,No,k,k,1,1094
4250,20,right,female,1,41,好人,tras.bmp,Good,Self,Yes,m,m,1,892
4250,20,right,female,1,42,常人,cirs.bmp,Ord,Self,Yes,m,m,1,934
4250,20,right,female,1,43,常人,sqro.bmp,Bad,Other,No,k,k,1,1093
4250,20,right,female,1,44,常人,sqrs.bmp,Bad,Self,No,m,k,0,884
4250,20,right,female,1,45,坏人,ciro.bmp,Ord,Other,No,k,k,1,1060
4250,20,right,female,1,46,坏人,tras.bmp,Good,Self,No,k,k,1,954
4250,20,right,female,1,47,好人,cirs.bmp,Ord,Self,No,k,k,1,847
4250,20,right,female,1,48,坏人,trao.bmp,Good,Other,No,k,k,1,1048
4250,20,right,female,1,49,常人,tras.bmp,Good,Self,No,k,k,1,871
4250,20,right,female,1,50,常人,ciro.bmp,Ord,Other,Yes,m,m,1,1023
4250,20,right,female,1,51,好人,trao.bmp,Good,Other,Yes,m,m,1,1008
4250,20,right,female,1,52,坏人,sqrs.bmp,Bad,Self,Yes,m,m,1,929
4250,20,right,female,1,53,好人,sqro.bmp,Bad,Other,No,k,k,1,941
4250,20,right,female,1,54,坏人,trao.bmp,Good,Other,No,k,k,1,1062
4250,20,right,female,1,55,常人,ciro.bmp,Ord,Other,Yes,m,m,1,757
4250,20,right,female,1,56,好人,ciro.bmp,Ord,Other,No,k,k,1,931
4250,20,right,female,1,57,好人,tras.bmp,Good,Self,Yes,m,m,1,1049
4250,20,right,female,1,58,坏人,tras.bmp,Good,Self,No,k,k,1,828
4250,20,right,female,1,59,常人,cirs.bmp,Ord,Self,Yes,m,m,1,792
4250,20,right,female,1,60,好人,cirs.bmp,Ord,Self,No,k,k,1,796
4250,20,right,female,1,61,坏人,ciro.bmp,Ord,Other,No,k,k,1,748
4250,20,right,female,1,62,常人,sqro.bmp,Bad,Other,No,k,k,1,839
4250,20,right,female,1,63,好人,tras.bmp,Good,Self,Yes,m,m,1,725
4250,20,right,female,1,64,坏人,cirs.bmp,Ord,Self,No,k,k,1,740
4250,20,right,female,1,65,好人,trao.bmp,Good,Other,Yes,m,m,1,893
4250,20,right,female,1,66,好人,sqrs.bmp,Bad,Self,No,k,k,1,572
4250,20,right,female,1,67,坏人,sqro.bmp,Bad,Other,Yes,m,m,1,1068
4250,20,right,female,1,68,常人,trao.bmp,Good,Other,No,k,k,1,831
4250,20,right,female,1,69,坏人,sqrs.bmp,Bad,Self,Yes,m,m,1,874
4250,20,right,female,1,70,坏人,sqro.bmp,Bad,Other,Yes,m,m,1,838
4250,20,right,female,1,71,常人,sqrs.bmp,Bad,Self,No,k,k,1,744
4250,20,right,female,1,72,常人,cirs.bmp,Ord,Self,Yes,k,m,0,800
4250,20,right,female,1,73,坏人,sqrs.bmp,Bad,Self,Yes,m,m,1,968
4250,20,right,female,1,74,常人,cirs.bmp,Ord,Self,Yes,m,m,1,677
4250,20,right,female,1,75,常人,ciro.bmp,Ord,Other,Yes,m,m,1,764
4250,20,right,female,1,76,常人,cirs.bmp,Ord,Self,Yes,m,m,1,577
4250,20,right,female,1,77,坏人,tras.bmp,Good,Self,No,k,k,1,575
4250,20,right,female,1,78,坏人,sqro.bmp,Bad,Other,Yes,m,m,1,806
4250,20,right,female,1,79,常人,sqrs.bmp,Bad,Self,No,k,k,1,657
4250,20,right,female,1,80,坏人,ciro.bmp,Ord,Other,No,k,k,1,941
4250,20,right,female,1,81,好人,tras.bmp,Good,Self,Yes,m,m,1,836
4250,20,right,female,1,82,常人,sqro.bmp,Bad,Other,No,k,k,1,694
4250,20,right,female,1,83,好人,trao.bmp,Good,Other,Yes,m,m,1,702
4250,20,right,female,1,84,坏人,sqro.bmp,Bad,Other,Yes,k,m,0,438
4250,20,right,female,1,85,坏人,trao.bmp,Good,Other,No,k,k,1,905
4250,20,right,female,1,86,好人,tras.bmp,Good,Self,Yes,m,m,1,734
4250,20,right,female,1,87,常人,trao.bmp,Good,Other,No,m,k,0,675
4250,20,right,female,1,88,好人,sqro.bmp,Bad,Other,No,k,k,1,759
4250,20,right,female,1,89,好人,sqrs.bmp,Bad,Self,No,k,k,1,743
4250,20,right,female,1,90,常人,tras.bmp,Good,Self,No,m,k,0,848
4250,20,right,female,1,91,坏人,cirs.bmp,Ord,Self,No,k,k,1,752
4250,20,right,female,1,92,好人,ciro.bmp,Ord,Other,No,k,k,1,621
4250,20,right,female,1,93,坏人,sqrs.bmp,Bad,Self,Yes,m,m,1,660
4250,20,right,female,1,94,好人,trao.bmp,Good,Other,Yes,m,m,1,767
4250,20,right,female,1,95,常人,ciro.bmp,Ord,Other,Yes,m,m,1,871
4250,20,right,female,1,96,好人,cirs.bmp,Ord,Self,No,k,k,1,771
4250,20,right,female,1,97,常人,sqro.bmp,Bad,Other,No,m,k,0,783
4250,20,right,female,1,98,坏人,ciro.bmp,Ord,Other,No,,k,0,0
4250,20,right,female,1,99,常人,ciro.bmp,Ord,Other,Yes,m,m,1,774
4250,20,right,female,1,100,坏人,cirs.bmp,Ord,Self,No,m,k,0,731
4250,20,right,female,1,101,坏人,sqro.bmp,Bad,Other,Yes,k,m,0,674
4250,20,right,female,1,102,好人,tras.bmp,Good,Self,Yes,,m,0,0
4250,20,right,female,1,103,好人,trao.bmp,Good,Other,Yes,m,m,1,576
4250,20,right,female,1,104,坏人,sqrs.bmp,Bad,Self,Yes,k,m,0,551
4250,20,right,female,1,105,坏人,trao.bmp,Good,Other,No,,k,0,0
4250,20,right,female,1,106,常人,cirs.bmp,Ord,Self,Yes,,m,0,0
4250,20,right,female,1,107,常人,ciro.bmp,Ord,Other,Yes,m,m,1,522
4250,20,right,female,1,108,常人,sqrs.bmp,Bad,Self,No,k,k,1,645
4250,20,right,female,1,109,坏人,sqrs.bmp,Bad,Self,Yes,,m,0,0
4250,20,right,female,1,110,坏人,sqro.bmp,Bad,Other,Yes,m,m,1,701
4250,20,right,female,1,111,好人,ciro.bmp,Ord,Other,No,k,k,1,655
4250,20,right,female,1,112,常人,tras.bmp,Good,Self,No,k,k,1,697
4250,20,right,female,1,113,好人,trao.bmp,Good,Other,Yes,m,m,1,794
4250,20,right,female,1,114,常人,cirs.bmp,Ord,Self,Yes,m,m,1,636
4250,20,right,female,1,115,好人,cirs.bmp,Ord,Self,No,m,k,0,728
4250,20,right,female,1,116,常人,trao.bmp,Good,Other,No,k,k,1,765
4250,20,right,female,1,117,好人,sqrs.bmp,Bad,Self,No,k,k,1,802
4250,20,right,female,1,118,好人,sqro.bmp,Bad,Other,No,k,k,1,581
4250,20,right,female,1,119,坏人,tras.bmp,Good,Self,No,m,k,0,871
4250,20,right,female,1,120,好人,tras.bmp,Good,Self,Yes,m,m,1,910
4250,20,right,female,2,1,常人,sqrs.bmp,Bad,Self,No,k,k,1,913
4250,20,right,female,2,2,常人,tras.bmp,Good,Self,No,k,k,1,1032
4250,20,right,female,2,3,好人,sqrs.bmp,Bad,Self,No,k,k,1,899
4250,20,right,female,2,4,常人,cirs.bmp,Ord,Self,Yes,m,m,1,984
4250,20,right,female,2,5,坏人,ciro.bmp,Ord,Other,No,,k,0,0
4250,20,right,female,2,6,坏人,cirs.bmp,Ord,Self,No,k,k,1,539
4250,20,right,female,2,7,坏人,sqrs.bmp,Bad,Self,Yes,k,m,0,509
4250,20,right,female,2,8,好人,trao.bmp,Good,Other,Yes,m,m,1,706
4250,20,right,female,2,9,好人,sqro.bmp,Bad,Other,No,k,k,1,616
4250,20,right,female,2,10,好人,ciro.bmp,Ord,Other,No,m,k,0,816
4250,20,right,female,2,11,坏人,sqro.bmp,Bad,Other,Yes,k,m,0,705
4250,20,right,female,2,12,常人,ciro.bmp,Ord,Other,Yes,m,m,1,855
4250,20,right,female,2,13,好人,tras.bmp,Good,Self,Yes,m,m,1,802
4250,20,right,female,2,14,常人,trao.bmp,Good,Other,No,k,k,1,728
4250,20,right,female,2,15,常人,cirs.bmp,Ord,Self,Yes,m,m,1,652
4250,20,right,female,2,16,坏人,sqro.bmp,Bad,Other,Yes,k,m,0,606
4250,20,right,female,2,17,好人,cirs.bmp,Ord,Self,No,k,k,1,693
4250,20,right,female,2,18,好人,tras.bmp,Good,Self,Yes,m,m,1,654
4250,20,right,female,2,19,坏人,trao.bmp,Good,Other,No,m,k,0,818
4250,20,right,female,2,20,坏人,tras.bmp,Good,Self,No,k,k,1,848
4250,20,right,female,2,21,常人,sqro.bmp,Bad,Other,No,k,k,1,864
4250,20,right,female,2,22,坏人,sqrs.bmp,Bad,Self,Yes,k,m,0,639
4250,20,right,female,2,23,好人,trao.bmp,Good,Other,Yes,m,m,1,643
4250,20,right,female,2,24,常人,ciro.bmp,Ord,Other,Yes,m,m,1,768
4250,20,right,female,2,25,好人,tras.bmp,Good,Self,Yes,m,m,1,662
4250,20,right,female,2,26,坏人,sqro.bmp,Bad,Other,Yes,m,m,1,873
4250,20,right,female,2,27,坏人,sqrs.bmp,Bad,Self,Yes,m,m,1,552
4250,20,right,female,2,28,坏人,trao.bmp,Good,Other,No,k,k,1,652
4250,20,right,female,2,29,常人,cirs.bmp,Ord,Self,Yes,m,m,1,559
4250,20,right,female,2,30,好人,trao.bmp,Good,Other,Yes,k,m,0,608
4250,20,right,female,2,31,好人,sqro.bmp,Bad,Other,No,m,k,0,670
4250,20,right,female,2,32,好人,trao.bmp,Good,Other,Yes,m,m,1,710
4250,20,right,female,2,33,好人,tras.bmp,Good,Self,Yes,m,m,1,473
4250,20,right,female,2,34,坏人,tras.bmp,Good,Self,No,m,k,0,453
4250,20,right,female,2,35,好人,sqrs.bmp,Bad,Self,No,m,k,0,644
4250,20,right,female,2,36,常人,sqrs.bmp,Bad,Self,No,k,k,1,612
4250,20,right,female,2,37,好人,cirs.bmp,Ord,Self,No,k,k,1,637
4250,20,right,female,2,38,好人,ciro.bmp,Ord,Other,No,k,k,1,534
4250,20,right,female,2,39,常人,ciro.bmp,Ord,Other,Yes,m,m,1,766
4250,20,right,female,2,40,坏人,sqro.bmp,Bad,Other,Yes,k,m,0,606
4250,20,right,female,2,41,常人,tras.bmp,Good,Self,No,k,k,1,670
4250,20,right,female,2,42,坏人,ciro.bmp,Ord,Other,No,k,k,1,876
4250,20,right,female,2,43,坏人,cirs.bmp,Ord,Self,No,k,k,1,557
4250,20,right,female,2,44,常人,cirs.bmp,Ord,Self,Yes,m,m,1,767
4250,20,right,female,2,45,坏人,sqrs.bmp,Bad,Self,Yes,k,m,0,619
4250,20,right,female,2,46,常人,sqro.bmp,Bad,Other,No,k,k,1,628
4250,20,right,female,2,47,常人,ciro.bmp,Ord,Other,Yes,m,m,1,626
4250,20,right,female,2,48,常人,trao.bmp,Good,Other,No,k,k,1,634
4250,20,right,female,2,49,常人,cirs.bmp,Ord,Self,Yes,m,m,1,663
4250,20,right,female,2,50,好人,sqro.bmp,Bad,Other,No,k,k,1,699
4250,20,right,female,2,51,常人,trao.bmp,Good,Other,No,k,k,1,940
4250,20,right,female,2,52,常人,cirs.bmp,Ord,Self,Yes,m,m,1,768
4250,20,right,female,2,53,坏人,trao.bmp,Good,Other,No,k,k,1,543
4250,20,right,female,2,54,好人,cirs.bmp,Ord,Self,No,k,k,1,540
4250,20,right,female,2,55,好人,sqrs.bmp,Bad,Self,No,k,k,1,608
4250,20,right,female,2,56,坏人,sqrs.bmp,Bad,Self,Yes,k,m,0,571
4250,20,right,female,2,57,坏人,sqro.bmp,Bad,Other,Yes,m,m,1,634
4250,20,right,female,2,58,常人,ciro.bmp,Ord,Other,Yes,k,m,0,641
4250,20,right,female,2,59,好人,tras.bmp,Good,Self,Yes,m,m,1,811
4250,20,right,female,2,60,好人,ciro.bmp,Ord,Other,No,k,k,1,744
4250,20,right,female,2,61,坏人,cirs.bmp,Ord,Self,No,k,k,1,685
4250,20,right,female,2,62,好人,trao.bmp,Good,Other,Yes,m,m,1,647
4250,20,right,female,2,63,坏人,sqrs.bmp,Bad,Self,Yes,k,m,0,572
4250,20,right,female,2,64,常人,tras.bmp,Good,Self,No,m,k,0,897
4250,20,right,female,2,65,坏人,ciro.bmp,Ord,Other,No,k,k,1,642
4250,20,right,female,2,66,坏人,tras.bmp,Good,Self,No,k,k,1,690
4250,20,right,female,2,67,常人,sqro.bmp,Bad,Other,No,k,k,1,848
4250,20,right,female,2,68,坏人,sqro.bmp,Bad,Other,Yes,m,m,1,922
4250,20,right,female,2,69,常人,sqrs.bmp,Bad,Self,No,k,k,1,680
4250,20,right,female,2,70,好人,trao.bmp,Good,Other,Yes,m,m,1,586
4250,20,right,female,2,71,好人,tras.bmp,Good,Self,Yes,m,m,1,650
4250,20,right,female,2,72,常人,ciro.bmp,Ord,Other,Yes,k,m,0,556
4250,20,right,female,2,73,好人,tras.bmp,Good,Self,Yes,m,m,1,748
4250,20,right,female,2,74,常人,cirs.bmp,Ord,Self,Yes,m,m,1,624
4250,20,right,female,2,75,常人,sqrs.bmp,Bad,Self,No,k,k,1,564
4250,20,right,female,2,76,坏人,ciro.bmp,Ord,Other,No,m,k,0,906
4250,20,right,female,2,77,好人,sqrs.bmp,Bad,Self,No,m,k,0,849
4250,20,right,female,2,78,好人,cirs.bmp,Ord,Self,No,k,k,1,432
4250,20,right,female,2,79,坏人,sqrs.bmp,Bad,Self,Yes,k,m,0,805
4250,20,right,female,2,80,好人,sqro.bmp,Bad,Other,No,m,k,0,417
4250,20,right,female,2,81,好人,tras.bmp,Good,Self,Yes,m,m,1,524
4250,20,right,female,2,82,坏人,cirs.bmp,Ord,Self,No,k,k,1,512
4250,20,right,female,2,83,坏人,trao.bmp,Good,Other,No,m,k,0,599
4250,20,right,female,2,84,常人,trao.bmp,Good,Other,No,m,k,0,560
4250,20,right,female,2,85,坏人,tras.bmp,Good,Self,No,k,k,1,351
4250,20,right,female,2,86,常人,ciro.bmp,Ord,Other,Yes,m,m,1,680
4250,20,right,female,2,87,坏人,sqro.bmp,Bad,Other,Yes,k,m,0,724
4250,20,right,female,2,88,常人,tras.bmp,Good,Self,No,k,k,1,772
4250,20,right,female,2,89,好人,trao.bmp,Good,Other,Yes,m,m,1,770
4250,20,right,female,2,90,好人,ciro.bmp,Ord,Other,No,m,k,0,655
4250,20,right,female,2,91,坏人,sqro.bmp,Bad,Other,Yes,k,m,0,700
4250,20,right,female,2,92,坏人,sqrs.bmp,Bad,Self,Yes,k,m,0,654
4250,20,right,female,2,93,常人,cirs.bmp,Ord,Self,Yes,m,m,1,376
4250,20,right,female,2,94,常人,sqro.bmp,Bad,Other,No,k,k,1,637
4250,20,right,female,2,95,好人,trao.bmp,Good,Other,Yes,k,m,0,548
4250,20,right,female,2,96,常人,ciro.bmp,Ord,Other,Yes,m,m,1,416
4250,20,right,female,2,97,坏人,sqrs.bmp,Bad,Self,Yes,k,m,0,547
4250,20,right,female,2,98,常人,sqrs.bmp,Bad,Self,No,m,k,0,405
4250,20,right,female,2,99,好人,trao.bmp,Good,Other,Yes,m,m,1,827
4250,20,right,female,2,100,坏人,ciro.bmp,Ord,Other,No,k,k,1,810
4250,20,right,female,2,101,好人,trao.bmp,Good,Other,Yes,m,m,1,696
4250,20,right,female,2,102,常人,tras.bmp,Good,Self,No,k,k,1,824
4250,20,right,female,2,103,坏人,tras.bmp,Good,Self,No,k,k,1,939
4250,20,right,female,2,104,坏人,trao.bmp,Good,Other,No,k,k,1,589
4250,20,right,female,2,105,好人,tras.bmp,Good,Self,Yes,k,m,0,512
4250,20,right,female,2,106,好人,sqrs.bmp,Bad,Self,No,m,k,0,455
4250,20,right,female,2,107,坏人,sqro.bmp,Bad,Other,Yes,k,m,0,615
4250,20,right,female,2,108,好人,tras.bmp,Good,Self,Yes,m,m,1,463
4250,20,right,female,2,109,好人,ciro.bmp,Ord,Other,No,k,k,1,779
4250,20,right,female,2,110,常人,ciro.bmp,Ord,Other,Yes,m,m,1,620
4250,20,right,female,2,111,坏人,cirs.bmp,Ord,Self,No,k,k,1,697
4250,20,right,female,2,112,常人,sqro.bmp,Bad,Other,No,m,k,0,659
4250,20,right,female,2,113,坏人,sqrs.bmp,Bad,Self,Yes,k,m,0,467
4250,20,right,female,2,114,坏人,sqro.bmp,Bad,Other,Yes,m,m,1,358
4250,20,right,female,2,115,常人,trao.bmp,Good,Other,No,k,k,1,754
4250,20,right,female,2,116,常人,cirs.bmp,Ord,Self,Yes,m,m,1,653
4250,20,right,female,2,117,好人,sqro.bmp,Bad,Other,No,k,k,1,778
4250,20,right,female,2,118,常人,cirs.bmp,Ord,Self,Yes,m,m,1,831
4250,20,right,female,2,119,常人,ciro.bmp,Ord,Other,Yes,m,m,1,593
4250,20,right,female,2,120,好人,cirs.bmp,Ord,Self,No,k,k,1,603
4250,20,right,female,3,1,坏人,trao.bmp,Good,Other,No,,k,0,0
4250,20,right,female,3,2,常人,sqro.bmp,Bad,Other,No,k,k,1,738
4250,20,right,female,3,3,好人,cirs.bmp,Ord,Self,No,k,k,1,1036
4250,20,right,female,3,4,好人,trao.bmp,Good,Other,Yes,k,m,0,540
4250,20,right,female,3,5,好人,sqro.bmp,Bad,Other,No,m,k,0,330
4250,20,right,female,3,6,常人,cirs.bmp,Ord,Self,Yes,m,m,1,637
4250,20,right,female,3,7,常人,cirs.bmp,Ord,Self,Yes,m,m,1,821
4250,20,right,female,3,8,坏人,sqro.bmp,Bad,Other,Yes,k,m,0,448
4250,20,right,female,3,9,好人,tras.bmp,Good,Self,Yes,k,m,0,561
4250,20,right,female,3,10,好人,trao.bmp,Good,Other,Yes,m,m,1,816
4250,20,right,female,3,11,好人,ciro.bmp,Ord,Other,No,m,k,0,735
4250,20,right,female,3,12,好人,tras.bmp,Good,Self,Yes,m,m,1,692
4250,20,right,female,3,13,坏人,tras.bmp,Good,Self,No,k,k,1,714
4250,20,right,female,3,14,常人,sqrs.bmp,Bad,Self,No,k,k,1,742
4250,20,right,female,3,15,常人,ciro.bmp,Ord,Other,Yes,m,m,1,950
4250,20,right,female,3,16,坏人,ciro.bmp,Ord,Other,No,k,k,1,651
4250,20,right,female,3,17,常人,ciro.bmp,Ord,Other,Yes,k,m,0,580
4250,20,right,female,3,18,好人,sqrs.bmp,Bad,Self,No,k,k,1,796
4250,20,right,female,3,19,常人,tras.bmp,Good,Self,No,k,k,1,981
4250,20,right,female,3,20,坏人,sqro.bmp,Bad,Other,Yes,m,m,1,811
4250,20,right,female,3,21,坏人,sqrs.bmp,Bad,Self,Yes,,m,0,0
4250,20,right,female,3,22,坏人,cirs.bmp,Ord,Self,No,,k,0,0
4250,20,right,female,3,23,常人,trao.bmp,Good,Other,No,k,k,1,449
4250,20,right,female,3,24,坏人,sqrs.bmp,Bad,Self,Yes,k,m,0,723
4250,20,right,female,3,25,好人,ciro.bmp,Ord,Other,No,k,k,1,753
4250,20,right,female,3,26,好人,tras.bmp,Good,Self,Yes,m,m,1,844
4250,20,right,female,3,27,常人,cirs.bmp,Ord,Self,Yes,m,m,1,650
4250,20,right,female,3,28,坏人,sqrs.bmp,Bad,Self,Yes,k,m,0,818
4250,20,right,female,3,29,常人,cirs.bmp,Ord,Self,Yes,m,m,1,773
4250,20,right,female,3,30,坏人,cirs.bmp,Ord,Self,No,k,k,1,594
4250,20,right,female,3,31,好人,cirs.bmp,Ord,Self,No,k,k,1,726
4250,20,right,female,3,32,坏人,ciro.bmp,Ord,Other,No,k,k,1,812
4250,20,right,female,3,33,好人,tras.bmp,Good,Self,Yes,m,m,1,691
4250,20,right,female,3,34,坏人,sqro.bmp,Bad,Other,Yes,m,m,1,726
4250,20,right,female,3,35,常人,sqro.bmp,Bad,Other,No,k,k,1,969
4250,20,right,female,3,36,坏人,sqrs.bmp,Bad,Self,Yes,m,m,1,1043
4250,20,right,female,3,37,坏人,trao.bmp,Good,Other,No,k,k,1,812
4250,20,right,female,3,38,常人,sqrs.bmp,Bad,Self,No,k,k,1,855
4250,20,right,female,3,39,好人,sqro.bmp,Bad,Other,No,k,k,1,921
4250,20,right,female,3,40,常人,trao.bmp,Good,Other,No,m,k,0,578
4250,20,right,female,3,41,好人,trao.bmp,Good,Other,Yes,m,m,1,765
4250,20,right,female,3,42,常人,ciro.bmp,Ord,Other,Yes,k,m,0,598
4250,20,right,female,3,43,好人,trao.bmp,Good,Other,Yes,m,m,1,710
4250,20,right,female,3,44,好人,sqrs.bmp,Bad,Self,No,k,k,1,709
4250,20,right,female,3,45,常人,ciro.bmp,Ord,Other,Yes,m,m,1,693
4250,20,right,female,3,46,常人,tras.bmp,Good,Self,No,k,k,1,726
4250,20,right,female,3,47,坏人,tras.bmp,Good,Self,No,k,k,1,945
4250,20,right,female,3,48,坏人,sqro.bmp,Bad,Other,Yes,k,m,0,790
4250,20,right,female,3,49,常人,trao.bmp,Good,Other,No,m,k,0,802
4250,20,right,female,3,50,好人,tras.bmp,Good,Self,Yes,m,m,1,820
4250,20,right,female,3,51,好人,trao.bmp,Good,Other,Yes,m,m,1,569
4250,20,right,female,3,52,坏人,ciro.bmp,Ord,Other,No,k,k,1,906
4250,20,right,female,3,53,常人,tras.bmp,Good,Self,No,m,k,0,917
4250,20,right,female,3,54,坏人,sqrs.bmp,Bad,Self,Yes,m,m,1,978
4250,20,right,female,3,55,好人,cirs.bmp,Ord,Self,No,,k,0,0
4250,20,right,female,3,56,坏人,cirs.bmp,Ord,Self,No,,k,0,0
4250,20,right,female,3,57,坏人,trao.bmp,Good,Other,No,k,k,1,839
4250,20,right,female,3,58,常人,cirs.bmp,Ord,Self,Yes,m,m,1,690
4250,20,right,female,3,59,常人,ciro.bmp,Ord,Other,Yes,m,m,1,621
4250,20,right,female,3,60,好人,trao.bmp,Good,Other,Yes,k,m,0,597
4250,20,right,female,3,61,坏人,sqro.bmp,Bad,Other,Yes,k,m,0,566
4250,20,right,female,3,62,坏人,sqro.bmp,Bad,Other,Yes,,m,0,0
4250,20,right,female,3,63,好人,sqrs.bmp,Bad,Self,No,k,k,1,842
4250,20,right,female,3,64,好人,sqro.bmp,Bad,Other,No,k,k,1,721
4250,20,right,female,3,65,常人,sqro.bmp,Bad,Other,No,k,k,1,910
4250,20,right,female,3,66,坏人,tras.bmp,Good,Self,No,k,k,1,888
4250,20,right,female,3,67,坏人,sqrs.bmp,Bad,Self,Yes,k,m,0,768
4250,20,right,female,3,68,好人,tras.bmp,Good,Self,Yes,m,m,1,630
4250,20,right,female,3,69,常人,sqrs.bmp,Bad,Self,No,k,k,1,666
4250,20,right,female,3,70,常人,cirs.bmp,Ord,Self,Yes,m,m,1,716
4250,20,right,female,3,71,好人,ciro.bmp,Ord,Other,No,k,k,1,538
4250,20,right,female,3,72,常人,ciro.bmp,Ord,Other,Yes,m,m,1,701
4250,20,right,female,3,73,好人,ciro.bmp,Ord,Other,No,k,k,1,771
4250,20,right,female,3,74,好人,trao.bmp,Good,Other,Yes,m,m,1,768
4250,20,right,female,3,75,好人,tras.bmp,Good,Self,Yes,m,m,1,540
4250,20,right,female,3,76,好人,tras.bmp,Good,Self,Yes,m,m,1,668
4250,20,right,female,3,77,常人,trao.bmp,Good,Other,No,k,k,1,617
4250,20,right,female,3,78,好人,sqrs.bmp,Bad,Self,No,m,k,0,874
4250,20,right,female,3,79,常人,cirs.bmp,Ord,Self,Yes,m,m,1,976
4250,20,right,female,3,80,常人,ciro.bmp,Ord,Other,Yes,m,m,1,602
4250,20,right,female,3,81,坏人,sqro.bmp,Bad,Other,Yes,m,m,1,867
4250,20,right,female,3,82,好人,trao.bmp,Good,Other,Yes,m,m,1,712
4250,20,right,female,3,83,常人,tras.bmp,Good,Self,No,k,k,1,699
4250,20,right,female,3,84,好人,sqro.bmp,Bad,Other,No,m,k,0,818
4250,20,right,female,3,85,坏人,trao.bmp,Good,Other,No,k,k,1,1041
4250,20,right,female,3,86,常人,sqro.bmp,Bad,Other,No,k,k,1,812
4250,20,right,female,3,87,常人,ciro.bmp,Ord,Other,Yes,m,m,1,864
4250,20,right,female,3,88,常人,cirs.bmp,Ord,Self,Yes,m,m,1,729
4250,20,right,female,3,89,坏人,sqrs.bmp,Bad,Self,Yes,m,m,1,809
4250,20,right,female,3,90,坏人,tras.bmp,Good,Self,No,k,k,1,737
4250,20,right,female,3,91,好人,cirs.bmp,Ord,Self,No,k,k,1,1060
4250,20,right,female,3,92,常人,sqrs.bmp,Bad,Self,No,k,k,1,859
4250,20,right,female,3,93,坏人,sqro.bmp,Bad,Other,Yes,m,m,1,814
4250,20,right,female,3,94,坏人,sqrs.bmp,Bad,Self,Yes,m,m,1,689
4250,20,right,female,3,95,坏人,cirs.bmp,Ord,Self,No,k,k,1,814
4250,20,right,female,3,96,坏人,ciro.bmp,Ord,Other,No,k,k,1,623
4250,20,right,female,3,97,坏人,ciro.bmp,Ord,Other,No,k,k,1,604
4250,20,right,female,3,98,坏人,sqro.bmp,Bad,Other,Yes,m,m,1,813
4250,20,right,female,3,99,好人,ciro.bmp,Ord,Other,No,k,k,1,627
4250,20,right,female,3,100,坏人,sqro.bmp,Bad,Other,Yes,m,m,1,846
4250,20,right,female,3,101,常人,ciro.bmp,Ord,Other,Yes,m,m,1,821
4250,20,right,female,3,102,常人,cirs.bmp,Ord,Self,Yes,m,m,1,514
4250,20,right,female,3,103,常人,trao.bmp,Good,Other,No,k,k,1,611
4250,20,right,female,3,104,好人,tras.bmp,Good,Self,Yes,m,m,1,901
4250,20,right,female,3,105,坏人,trao.bmp,Good,Other,No,k,k,1,630
4250,20,right,female,3,106,常人,sqro.bmp,Bad,Other,No,k,k,1,878
4250,20,right,female,3,107,坏人,tras.bmp,Good,Self,No,k,k,1,750
4250,20,right,female,3,108,坏人,sqrs.bmp,Bad,Self,Yes,m,m,1,690
4250,20,right,female,3,109,常人,ciro.bmp,Ord,Other,Yes,m,m,1,647
4250,20,right,female,3,110,好人,tras.bmp,Good,Self,Yes,m,m,1,653
4250,20,right,female,3,111,好人,sqro.bmp,Bad,Other,No,k,k,1,540
4250,20,right,female,3,112,好人,sqrs.bmp,Bad,Self,No,k,k,1,670
4250,20,right,female,3,113,好人,cirs.bmp,Ord,Self,No,k,k,1,720
4250,20,right,female,3,114,好人,trao.bmp,Good,Other,Yes,m,m,1,740
4250,20,right,female,3,115,坏人,cirs.bmp,Ord,Self,No,k,k,1,812
4250,20,right,female,3,116,常人,sqrs.bmp,Bad,Self,No,k,k,1,652
4250,20,right,female,3,117,好人,trao.bmp,Good,Other,Yes,m,m,1,624
4250,20,right,female,3,118,常人,cirs.bmp,Ord,Self,Yes,m,m,1,673
4250,20,right,female,3,119,坏人,sqrs.bmp,Bad,Self,Yes,m,m,1,762
4250,20,right,female,3,120,常人,tras.bmp,Good,Self,No,k,k,1,682
4250,20,right,female,4,1,坏人,sqro.bmp,Bad,Other,Yes,m,m,1,824
4250,20,right,female,4,2,常人,cirs.bmp,Ord,Self,Yes,m,m,1,657
4250,20,right,female,4,3,好人,sqro.bmp,Bad,Other,No,m,k,0,513
4250,20,right,female,4,4,常人,tras.bmp,Good,Self,No,k,k,1,637
4250,20,right,female,4,5,常人,ciro.bmp,Ord,Other,Yes,m,m,1,766
4250,20,right,female,4,6,常人,ciro.bmp,Ord,Other,Yes,m,m,1,536
4250,20,right,female,4,7,好人,trao.bmp,Good,Other,Yes,m,m,1,653
4250,20,right,female,4,8,好人,trao.bmp,Good,Other,Yes,m,m,1,752
4250,20,right,female,4,9,常人,cirs.bmp,Ord,Self,Yes,m,m,1,586
4250,20,right,female,4,10,常人,sqro.bmp,Bad,Other,No,k,k,1,601
4250,20,right,female,4,11,坏人,sqrs.bmp,Bad,Self,Yes,m,m,1,686
4250,20,right,female,4,12,好人,tras.bmp,Good,Self,Yes,m,m,1,642
4250,20,right,female,4,13,坏人,tras.bmp,Good,Self,No,k,k,1,626
4250,20,right,female,4,14,坏人,trao.bmp,Good,Other,No,m,k,0,950
4250,20,right,female,4,15,坏人,sqrs.bmp,Bad,Self,Yes,m,m,1,746
4250,20,right,female,4,16,坏人,cirs.bmp,Ord,Self,No,k,k,1,589
4250,20,right,female,4,17,坏人,ciro.bmp,Ord,Other,No,k,k,1,673
4250,20,right,female,4,18,好人,tras.bmp,Good,Self,Yes,m,m,1,664
4250,20,right,female,4,19,常人,trao.bmp,Good,Other,No,k,k,1,636
4250,20,right,female,4,20,好人,sqrs.bmp,Bad,Self,No,k,k,1,713
4250,20,right,female,4,21,好人,ciro.bmp,Ord,Other,No,k,k,1,607
4250,20,right,female,4,22,坏人,sqro.bmp,Bad,Other,Yes,m,m,1,682
4250,20,right,female,4,23,常人,sqrs.bmp,Bad,Self,No,k,k,1,560
4250,20,right,female,4,24,好人,cirs.bmp,Ord,Self,No,m,k,0,829
4250,20,right,female,4,25,好人,sqrs.bmp,Bad,Self,No,k,k,1,683
4250,20,right,female,4,26,好人,trao.bmp,Good,Other,Yes,k,m,0,580
4250,20,right,female,4,27,坏人,trao.bmp,Good,Other,No,k,k,1,597
4250,20,right,female,4,28,坏人,cirs.bmp,Ord,Self,No,k,k,1,556
4250,20,right,female,4,29,常人,cirs.bmp,Ord,Self,Yes,k,m,0,678
4250,20,right,female,4,30,坏人,ciro.bmp,Ord,Other,No,m,k,0,557
4250,20,right,female,4,31,坏人,sqrs.bmp,Bad,Self,Yes,m,m,1,759
4250,20,right,female,4,32,常人,sqrs.bmp,Bad,Self,No,k,k,1,694
4250,20,right,female,4,33,常人,trao.bmp,Good,Other,No,k,k,1,648
4250,20,right,female,4,34,好人,ciro.bmp,Ord,Other,No,k,k,1,709
4250,20,right,female,4,35,好人,tras.bmp,Good,Self,Yes,k,m,0,542
4250,20,right,female,4,36,好人,trao.bmp,Good,Other,Yes,k,m,0,524
4250,20,right,female,4,37,常人,sqro.bmp,Bad,Other,No,m,k,0,504
4250,20,right,female,4,38,坏人,sqro.bmp,Bad,Other,Yes,m,m,1,635
4250,20,right,female,4,39,好人,sqro.bmp,Bad,Other,No,k,k,1,585
4250,20,right,female,4,40,坏人,sqrs.bmp,Bad,Self,Yes,m,m,1,803
4250,20,right,female,4,41,坏人,tras.bmp,Good,Self,No,k,k,1,586
4250,20,right,female,4,42,常人,ciro.bmp,Ord,Other,Yes,m,m,1,718
4250,20,right,female,4,43,坏人,sqro.bmp,Bad,Other,Yes,m,m,1,661
4250,20,right,female,4,44,好人,tras.bmp,Good,Self,Yes,m,m,1,760
4250,20,right,female,4,45,常人,ciro.bmp,Ord,Other,Yes,k,m,0,426
4250,20,right,female,4,46,好人,cirs.bmp,Ord,Self,No,k,k,1,922
4250,20,right,female,4,47,常人,cirs.bmp,Ord,Self,Yes,m,m,1,720
4250,20,right,female,4,48,常人,tras.bmp,Good,Self,No,k,k,1,636
4250,20,right,female,4,49,坏人,sqrs.bmp,Bad,Self,Yes,k,m,0,639
4250,20,right,female,4,50,常人,sqro.bmp,Bad,Other,No,k,k,1,636
4250,20,right,female,4,51,好人,tras.bmp,Good,Self,Yes,m,m,1,603
4250,20,right,female,4,52,常人,sqrs.bmp,Bad,Self,No,k,k,1,580
4250,20,right,female,4,53,好人,trao.bmp,Good,Other,Yes,m,m,1,619
4250,20,right,female,4,54,坏人,ciro.bmp,Ord,Other,No,k,k,1,755
4250,20,right,female,4,55,常人,ciro.bmp,Ord,Other,Yes,m,m,1,594
4250,20,right,female,4,56,常人,cirs.bmp,Ord,Self,Yes,m,m,1,493
4250,20,right,female,4,57,好人,tras.bmp,Good,Self,Yes,m,m,1,590
4250,20,right,female,4,58,常人,cirs.bmp,Ord,Self,Yes,k,m,0,486
4250,20,right,female,4,59,坏人,trao.bmp,Good,Other,No,k,k,1,523
4250,20,right,female,4,60,好人,cirs.bmp,Ord,Self,No,k,k,1,793
4250,20,right,female,4,61,常人,tras.bmp,Good,Self,No,k,k,1,683
4250,20,right,female,4,62,坏人,sqrs.bmp,Bad,Self,Yes,m,m,1,806
4250,20,right,female,4,63,坏人,tras.bmp,Good,Self,No,k,k,1,678
4250,20,right,female,4,64,好人,sqrs.bmp,Bad,Self,No,m,k,0,822
4250,20,right,female,4,65,常人,ciro.bmp,Ord,Other,Yes,m,m,1,594
4250,20,right,female,4,66,好人,trao.bmp,Good,Other,Yes,k,m,0,587
4250,20,right,female,4,67,好人,sqro.bmp,Bad,Other,No,k,k,1,842
4250,20,right,female,4,68,常人,trao.bmp,Good,Other,No,k,k,1,860
4250,20,right,female,4,69,好人,ciro.bmp,Ord,Other,No,k,k,1,763
4250,20,right,female,4,70,坏人,cirs.bmp,Ord,Self,No,k,k,1,693
4250,20,right,female,4,71,坏人,sqro.bmp,Bad,Other,Yes,m,m,1,780
4250,20,right,female,4,72,坏人,sqro.bmp,Bad,Other,Yes,m,m,1,588
4250,20,right,female,4,73,好人,trao.bmp,Good,Other,Yes,m,m,1,606
4250,20,right,female,4,74,坏人,sqro.bmp,Bad,Other,Yes,m,m,1,709
4250,20,right,female,4,75,好人,tras.bmp,Good,Self,Yes,m,m,1,718
4250,20,right,female,4,76,常人,sqrs.bmp,Bad,Self,No,k,k,1,648
4250,20,right,female,4,77,常人,sqro.bmp,Bad,Other,No,m,k,0,645
4250,20,right,female,4,78,好人,trao.bmp,Good,Other,Yes,m,m,1,717
4250,20,right,female,4,79,坏人,sqrs.bmp,Bad,Self,Yes,m,m,1,736
4250,20,right,female,4,80,坏人,trao.bmp,Good,Other,No,k,k,1,867
4250,20,right,female,4,81,坏人,sqrs.bmp,Bad,Self,Yes,m,m,1,825
4250,20,right,female,4,82,好人,ciro.bmp,Ord,Other,No,k,k,1,770
4250,20,right,female,4,83,好人,tras.bmp,Good,Self,Yes,m,m,1,709
4250,20,right,female,4,84,坏人,tras.bmp,Good,Self,No,k,k,1,591
4250,20,right,female,4,85,常人,cirs.bmp,Ord,Self,Yes,m,m,1,889
4250,20,right,female,4,86,常人,cirs.bmp,Ord,Self,Yes,m,m,1,562
4250,20,right,female,4,87,坏人,cirs.bmp,Ord,Self,No,k,k,1,674
4250,20,right,female,4,88,常人,trao.bmp,Good,Other,No,k,k,1,755
4250,20,right,female,4,89,常人,ciro.bmp,Ord,Other,Yes,m,m,1,877
4250,20,right,female,4,90,好人,cirs.bmp,Ord,Self,No,k,k,1,943
4250,20,right,female,4,91,坏人,ciro.bmp,Ord,Other,No,k,k,1,675
4250,20,right,female,4,92,常人,ciro.bmp,Ord,Other,Yes,k,m,0,803
4250,20,right,female,4,93,坏人,sqro.bmp,Bad,Other,Yes,m,m,1,825
4250,20,right,female,4,94,好人,sqro.bmp,Bad,Other,No,m,k,0,1076
4250,20,right,female,4,95,好人,sqrs.bmp,Bad,Self,No,,k,0,0
4250,20,right,female,4,96,常人,tras.bmp,Good,Self,No,m,k,0,673
4250,20,right,female,4,97,常人,trao.bmp,Good,Other,No,k,k,1,288
4250,20,right,female,4,98,好人,sqrs.bmp,Bad,Self,No,k,k,1,548
4250,20,right,female,4,99,坏人,cirs.bmp,Ord,Self,No,k,k,1,507
4250,20,right,female,4,100,常人,sqrs.bmp,Bad,Self,No,k,k,1,497
4250,20,right,female,4,101,常人,ciro.bmp,Ord,Other,Yes,k,m,0,482
4250,20,right,female,4,102,好人,tras.bmp,Good,Self,Yes,k,m,0,605
4250,20,right,female,4,103,坏人,sqro.bmp,Bad,Other,Yes,m,m,1,692
4250,20,right,female,4,104,常人,cirs.bmp,Ord,Self,Yes,m,m,1,708
4250,20,right,female,4,105,好人,trao.bmp,Good,Other,Yes,m,m,1,583
4250,20,right,female,4,106,好人,tras.bmp,Good,Self,Yes,m,m,1,521
4250,20,right,female,4,107,好人,sqro.bmp,Bad,Other,No,k,k,1,561
4250,20,right,female,4,108,好人,ciro.bmp,Ord,Other,No,k,k,1,608
4250,20,right,female,4,109,常人,sqro.bmp,Bad,Other,No,k,k,1,675
4250,20,right,female,4,110,坏人,trao.bmp,Good,Other,No,k,k,1,649
4250,20,right,female,4,111,好人,cirs.bmp,Ord,Self,No,m,k,0,599
4250,20,right,female,4,112,常人,tras.bmp,Good,Self,No,m,k,0,562
4250,20,right,female,4,113,好人,trao.bmp,Good,Other,Yes,k,m,0,363
4250,20,right,female,4,114,常人,ciro.bmp,Ord,Other,Yes,m,m,1,619
4250,20,right,female,4,115,坏人,sqro.bmp,Bad,Other,Yes,m,m,1,637
4250,20,right,female,4,116,坏人,sqrs.bmp,Bad,Self,Yes,m,m,1,760
4250,20,right,female,4,117,坏人,sqrs.bmp,Bad,Self,Yes,m,m,1,546
4250,20,right,female,4,118,常人,cirs.bmp,Ord,Self,Yes,m,m,1,672
4250,20,right,female,4,119,坏人,ciro.bmp,Ord,Other,No,k,k,1,574
4250,20,right,female,4,120,坏人,tras.bmp,Good,Self,No,k,k,1,732
4250,20,right,female,5,1,常人,sqro.bmp,Bad,Other,No,k,k,1,1020
4250,20,right,female,5,2,好人,sqro.bmp,Bad,Other,No,k,k,1,1038
4250,20,right,female,5,3,常人,cirs.bmp,Ord,Self,Yes,m,m,1,659
4250,20,right,female,5,4,坏人,cirs.bmp,Ord,Self,No,k,k,1,614
4250,20,right,female,5,5,常人,tras.bmp,Good,Self,No,k,k,1,682
4250,20,right,female,5,6,好人,cirs.bmp,Ord,Self,No,k,k,1,597
4250,20,right,female,5,7,常人,ciro.bmp,Ord,Other,Yes,m,m,1,704
4250,20,right,female,5,8,坏人,sqro.bmp,Bad,Other,Yes,k,m,0,497
4250,20,right,female,5,9,好人,trao.bmp,Good,Other,Yes,m,m,1,641
4250,20,right,female,5,10,坏人,tras.bmp,Good,Self,No,m,k,0,681
4250,20,right,female,5,11,好人,sqrs.bmp,Bad,Self,No,k,k,1,699
4250,20,right,female,5,12,常人,trao.bmp,Good,Other,No,k,k,1,860
4250,20,right,female,5,13,好人,tras.bmp,Good,Self,Yes,m,m,1,776
4250,20,right,female,5,14,坏人,sqro.bmp,Bad,Other,Yes,m,m,1,863
4250,20,right,female,5,15,坏人,sqrs.bmp,Bad,Self,Yes,m,m,1,530
4250,20,right,female,5,16,常人,cirs.bmp,Ord,Self,Yes,m,m,1,751
4250,20,right,female,5,17,好人,trao.bmp,Good,Other,Yes,m,m,1,699
4250,20,right,female,5,18,坏人,sqrs.bmp,Bad,Self,Yes,k,m,0,821
4250,20,right,female,5,19,好人,tras.bmp,Good,Self,Yes,m,m,1,872
4250,20,right,female,5,20,好人,ciro.bmp,Ord,Other,No,k,k,1,747
4250,20,right,female,5,21,常人,ciro.bmp,Ord,Other,Yes,m,m,1,971
4250,20,right,female,5,22,坏人,ciro.bmp,Ord,Other,No,k,k,1,658
4250,20,right,female,5,23,常人,sqrs.bmp,Bad,Self,No,k,k,1,842
4250,20,right,female,5,24,坏人,trao.bmp,Good,Other,No,k,k,1,915
4250,20,right,female,5,25,坏人,sqrs.bmp,Bad,Self,Yes,m,m,1,819
4250,20,right,female,5,26,好人,ciro.bmp,Ord,Other,No,k,k,1,735
4250,20,right,female,5,27,常人,sqro.bmp,Bad,Other,No,k,k,1,867
4250,20,right,female,5,28,坏人,trao.bmp,Good,Other,No,k,k,1,861
4250,20,right,female,5,29,常人,ciro.bmp,Ord,Other,Yes,m,m,1,802
4250,20,right,female,5,30,常人,tras.bmp,Good,Self,No,k,k,1,638
4250,20,right,female,5,31,坏人,sqro.bmp,Bad,Other,Yes,m,m,1,840
4250,20,right,female,5,32,常人,ciro.bmp,Ord,Other,Yes,m,m,1,789
4250,20,right,female,5,33,常人,cirs.bmp,Ord,Self,Yes,m,m,1,636
4250,20,right,female,5,34,好人,sqrs.bmp,Bad,Self,No,k,k,1,914
4250,20,right,female,5,35,好人,tras.bmp,Good,Self,Yes,m,m,1,707
4250,20,right,female,5,36,好人,cirs.bmp,Ord,Self,No,k,k,1,633
4250,20,right,female,5,37,好人,trao.bmp,Good,Other,Yes,k,m,0,678
4250,20,right,female,5,38,常人,trao.bmp,Good,Other,No,k,k,1,729
4250,20,right,female,5,39,坏人,sqrs.bmp,Bad,Self,Yes,m,m,1,766
4250,20,right,female,5,40,坏人,sqro.bmp,Bad,Other,Yes,m,m,1,582
4250,20,right,female,5,41,坏人,ciro.bmp,Ord,Other,No,k,k,1,639
4250,20,right,female,5,42,好人,sqro.bmp,Bad,Other,No,k,k,1,773
4250,20,right,female,5,43,常人,cirs.bmp,Ord,Self,Yes,m,m,1,690
4250,20,right,female,5,44,坏人,tras.bmp,Good,Self,No,k,k,1,721
4250,20,right,female,5,45,好人,tras.bmp,Good,Self,Yes,m,m,1,667
4250,20,right,female,5,46,常人,sqrs.bmp,Bad,Self,No,k,k,1,567
4250,20,right,female,5,47,坏人,cirs.bmp,Ord,Self,No,k,k,1,757
4250,20,right,female,5,48,好人,trao.bmp,Good,Other,Yes,m,m,1,703
4250,20,right,female,5,49,好人,trao.bmp,Good,Other,Yes,m,m,1,588
4250,20,right,female,5,50,好人,tras.bmp,Good,Self,Yes,m,m,1,558
4250,20,right,female,5,51,坏人,cirs.bmp,Ord,Self,No,k,k,1,514
4250,20,right,female,5,52,常人,tras.bmp,Good,Self,No,k,k,1,845
4250,20,right,female,5,53,坏人,tras.bmp,Good,Self,No,k,k,1,620
4250,20,right,female,5,54,坏人,trao.bmp,Good,Other,No,k,k,1,556
4250,20,right,female,5,55,常人,sqro.bmp,Bad,Other,No,k,k,1,715
4250,20,right,female,5,56,好人,sqro.bmp,Bad,Other,No,k,k,1,644
4250,20,right,female,5,57,常人,ciro.bmp,Ord,Other,Yes,m,m,1,686
4250,20,right,female,5,58,常人,sqrs.bmp,Bad,Self,No,k,k,1,666
4250,20,right,female,5,59,常人,cirs.bmp,Ord,Self,Yes,k,m,0,599
4250,20,right,female,5,60,好人,cirs.bmp,Ord,Self,No,k,k,1,775
4250,20,right,female,5,61,好人,trao.bmp,Good,Other,Yes,k,m,0,661
4250,20,right,female,5,62,坏人,sqro.bmp,Bad,Other,Yes,m,m,1,693
4250,20,right,female,5,63,坏人,ciro.bmp,Ord,Other,No,k,k,1,510
4250,20,right,female,5,64,好人,tras.bmp,Good,Self,Yes,m,m,1,608
4250,20,right,female,5,65,坏人,sqro.bmp,Bad,Other,Yes,m,m,1,748
4250,20,right,female,5,66,坏人,sqrs.bmp,Bad,Self,Yes,m,m,1,586
4250,20,right,female,5,67,好人,sqrs.bmp,Bad,Self,No,k,k,1,560
4250,20,right,female,5,68,常人,ciro.bmp,Ord,Other,Yes,m,m,1,786
4250,20,right,female,5,69,常人,trao.bmp,Good,Other,No,k,k,1,554
4250,20,right,female,5,70,好人,ciro.bmp,Ord,Other,No,k,k,1,781
4250,20,right,female,5,71,坏人,sqrs.bmp,Bad,Self,Yes,m,m,1,651
4250,20,right,female,5,72,常人,cirs.bmp,Ord,Self,Yes,m,m,1,778
4250,20,right,female,5,73,好人,trao.bmp,Good,Other,Yes,m,m,1,662
4250,20,right,female,5,74,常人,tras.bmp,Good,Self,No,k,k,1,542
4250,20,right,female,5,75,常人,sqro.bmp,Bad,Other,No,m,k,0,848
4250,20,right,female,5,76,坏人,cirs.bmp,Ord,Self,No,k,k,1,998
4250,20,right,female,5,77,常人,ciro.bmp,Ord,Other,Yes,m,m,1,729
4250,20,right,female,5,78,常人,sqrs.bmp,Bad,Self,No,k,k,1,643
4250,20,right,female,5,79,好人,tras.bmp,Good,Self,Yes,m,m,1,746
4250,20,right,female,5,80,坏人,tras.bmp,Good,Self,No,k,k,1,635
4250,20,right,female,5,81,好人,sqro.bmp,Bad,Other,No,k,k,1,1087
4250,20,right,female,5,82,坏人,sqrs.bmp,Bad,Self,Yes,m,m,1,828
4250,20,right,female,5,83,常人,trao.bmp,Good,Other,No,k,k,1,727
4250,20,right,female,5,84,坏人,trao.bmp,Good,Other,No,k,k,1,898
4250,20,right,female,5,85,好人,trao.bmp,Good,Other,Yes,m,m,1,641
4250,20,right,female,5,86,好人,sqrs.bmp,Bad,Self,No,k,k,1,648
4250,20,right,female,5,87,常人,ciro.bmp,Ord,Other,Yes,m,m,1,704
4250,20,right,female,5,88,坏人,sqrs.bmp,Bad,Self,Yes,m,m,1,959
4250,20,right,female,5,89,坏人,ciro.bmp,Ord,Other,No,k,k,1,921
4250,20,right,female,5,90,好人,cirs.bmp,Ord,Self,No,k,k,1,713
4250,20,right,female,5,91,好人,tras.bmp,Good,Self,Yes,m,m,1,885
4250,20,right,female,5,92,好人,ciro.bmp,Ord,Other,No,k,k,1,672
4250,20,right,female,5,93,坏人,sqro.bmp,Bad,Other,Yes,m,m,1,713
4250,20,right,female,5,94,坏人,sqro.bmp,Bad,Other,Yes,m,m,1,634
4250,20,right,female,5,95,常人,cirs.bmp,Ord,Self,Yes,m,m,1,777
4250,20,right,female,5,96,常人,cirs.bmp,Ord,Self,Yes,m,m,1,616
4250,20,right,female,5,97,常人,cirs.bmp,Ord,Self,Yes,m,m,1,584
4250,20,right,female,5,98,坏人,sqro.bmp,Bad,Other,Yes,m,m,1,746
4250,20,right,female,5,99,好人,ciro.bmp,Ord,Other,No,k,k,1,879
4250,20,right,female,5,100,坏人,tras.bmp,Good,Self,No,k,k,1,871
4250,20,right,female,5,101,坏人,ciro.bmp,Ord,Other,No,k,k,1,712
4250,20,right,female,5,102,坏人,sqro.bmp,Bad,Other,Yes,m,m,1,672
4250,20,right,female,5,103,坏人,sqrs.bmp,Bad,Self,Yes,m,m,1,694
4250,20,right,female,5,104,好人,tras.bmp,Good,Self,Yes,m,m,1,756
4250,20,right,female,5,105,常人,ciro.bmp,Ord,Other,Yes,m,m,1,919
4250,20,right,female,5,106,好人,trao.bmp,Good,Other,Yes,m,m,1,768
4250,20,right,female,5,107,好人,cirs.bmp,Ord,Self,No,k,k,1,686
4250,20,right,female,5,108,好人,sqrs.bmp,Bad,Self,No,k,k,1,624
4250,20,right,female,5,109,好人,sqro.bmp,Bad,Other,No,k,k,1,622
4250,20,right,female,5,110,常人,ciro.bmp,Ord,Other,Yes,m,m,1,655
4250,20,right,female,5,111,常人,trao.bmp,Good,Other,No,k,k,1,904
4250,20,right,female,5,112,好人,trao.bmp,Good,Other,Yes,m,m,1,799
4250,20,right,female,5,113,常人,sqrs.bmp,Bad,Self,No,k,k,1,813
4250,20,right,female,5,114,坏人,sqrs.bmp,Bad,Self,Yes,m,m,1,1066
4250,20,right,female,5,115,常人,cirs.bmp,Ord,Self,Yes,m,m,1,712
4250,20,right,female,5,116,坏人,trao.bmp,Good,Other,No,k,k,1,707
4250,20,right,female,5,117,好人,tras.bmp,Good,Self,Yes,m,m,1,732
4250,20,right,female,5,118,常人,tras.bmp,Good,Self,No,,k,0,0
4250,20,right,female,5,119,坏人,cirs.bmp,Ord,Self,No,m,k,0,1029
4250,20,right,female,5,120,常人,sqro.bmp,Bad,Other,No,,k,0,0
4250,20,right,female,6,1,常人,sqro.bmp,Bad,Other,No,k,k,1,773
4250,20,right,female,6,2,好人,cirs.bmp,Ord,Self,No,k,k,1,794
4250,20,right,female,6,3,坏人,cirs.bmp,Ord,Self,No,k,k,1,605
4250,20,right,female,6,4,好人,sqrs.bmp,Bad,Self,No,k,k,1,1036
4250,20,right,female,6,5,好人,tras.bmp,Good,Self,Yes,m,m,1,623
4250,20,right,female,6,6,坏人,sqro.bmp,Bad,Other,Yes,k,m,0,536
4250,20,right,female,6,7,常人,cirs.bmp,Ord,Self,Yes,m,m,1,838
4250,20,right,female,6,8,坏人,trao.bmp,Good,Other,No,k,k,1,680
4250,20,right,female,6,9,好人,tras.bmp,Good,Self,Yes,m,m,1,639
4250,20,right,female,6,10,好人,trao.bmp,Good,Other,Yes,m,m,1,908
4250,20,right,female,6,11,常人,sqrs.bmp,Bad,Self,No,k,k,1,670
4250,20,right,female,6,12,常人,cirs.bmp,Ord,Self,Yes,m,m,1,722
4250,20,right,female,6,13,坏人,sqrs.bmp,Bad,Self,Yes,m,m,1,952
4250,20,right,female,6,14,常人,trao.bmp,Good,Other,No,k,k,1,946
4250,20,right,female,6,15,坏人,tras.bmp,Good,Self,No,k,k,1,816
4250,20,right,female,6,16,常人,tras.bmp,Good,Self,No,k,k,1,660
4250,20,right,female,6,17,坏人,sqrs.bmp,Bad,Self,Yes,m,m,1,666
4250,20,right,female,6,18,常人,ciro.bmp,Ord,Other,Yes,m,m,1,666
4250,20,right,female,6,19,常人,ciro.bmp,Ord,Other,Yes,m,m,1,592
4250,20,right,female,6,20,好人,sqro.bmp,Bad,Other,No,k,k,1,899
4250,20,right,female,6,21,坏人,sqro.bmp,Bad,Other,Yes,m,m,1,793
4250,20,right,female,6,22,坏人,ciro.bmp,Ord,Other,No,k,k,1,765
4250,20,right,female,6,23,好人,ciro.bmp,Ord,Other,No,k,k,1,827
4250,20,right,female,6,24,好人,trao.bmp,Good,Other,Yes,m,m,1,675
4250,20,right,female,6,25,常人,ciro.bmp,Ord,Other,Yes,k,m,0,769
4250,20,right,female,6,26,好人,tras.bmp,Good,Self,Yes,m,m,1,795
4250,20,right,female,6,27,好人,tras.bmp,Good,Self,Yes,m,m,1,799
4250,20,right,female,6,28,好人,sqro.bmp,Bad,Other,No,k,k,1,597
4250,20,right,female,6,29,好人,cirs.bmp,Ord,Self,No,k,k,1,891
4250,20,right,female,6,30,坏人,sqrs.bmp,Bad,Self,Yes,m,m,1,845
4250,20,right,female,6,31,常人,cirs.bmp,Ord,Self,Yes,m,m,1,633
4250,20,right,female,6,32,好人,ciro.bmp,Ord,Other,No,k,k,1,585
4250,20,right,female,6,33,坏人,cirs.bmp,Ord,Self,No,k,k,1,759
4250,20,right,female,6,34,坏人,sqro.bmp,Bad,Other,Yes,k,m,0,910
4250,20,right,female,6,35,好人,trao.bmp,Good,Other,Yes,m,m,1,698
4250,20,right,female,6,36,常人,trao.bmp,Good,Other,No,k,k,1,615
4250,20,right,female,6,37,坏人,sqro.bmp,Bad,Other,Yes,m,m,1,665
4250,20,right,female,6,38,常人,cirs.bmp,Ord,Self,Yes,m,m,1,701
4250,20,right,female,6,39,坏人,trao.bmp,Good,Other,No,k,k,1,612
4250,20,right,female,6,40,常人,sqro.bmp,Bad,Other,No,k,k,1,654
4250,20,right,female,6,41,坏人,sqrs.bmp,Bad,Self,Yes,m,m,1,929
4250,20,right,female,6,42,坏人,ciro.bmp,Ord,Other,No,k,k,1,672
4250,20,right,female,6,43,常人,tras.bmp,Good,Self,No,k,k,1,637
4250,20,right,female,6,44,好人,sqrs.bmp,Bad,Self,No,k,k,1,770
4250,20,right,female,6,45,坏人,tras.bmp,Good,Self,No,k,k,1,694
4250,20,right,female,6,46,常人,sqrs.bmp,Bad,Self,No,k,k,1,751
4250,20,right,female,6,47,好人,trao.bmp,Good,Other,Yes,m,m,1,778
4250,20,right,female,6,48,常人,ciro.bmp,Ord,Other,Yes,m,m,1,641
4250,20,right,female,6,49,好人,tras.bmp,Good,Self,Yes,m,m,1,757
4250,20,right,female,6,50,好人,trao.bmp,Good,Other,Yes,k,m,0,610
4250,20,right,female,6,51,坏人,ciro.bmp,Ord,Other,No,k,k,1,610
4250,20,right,female,6,52,好人,trao.bmp,Good,Other,Yes,m,m,1,590
4250,20,right,female,6,53,常人,cirs.bmp,Ord,Self,Yes,m,m,1,629
4250,20,right,female,6,54,坏人,trao.bmp,Good,Other,No,k,k,1,794
4250,20,right,female,6,55,好人,cirs.bmp,Ord,Self,No,k,k,1,717
4250,20,right,female,6,56,坏人,sqro.bmp,Bad,Other,Yes,m,m,1,836
4250,20,right,female,6,57,好人,ciro.bmp,Ord,Other,No,m,k,0,738
4250,20,right,female,6,58,好人,sqro.bmp,Bad,Other,No,k,k,1,1083
4250,20,right,female,6,59,常人,sqrs.bmp,Bad,Self,No,k,k,1,799
4250,20,right,female,6,60,常人,ciro.bmp,Ord,Other,Yes,k,m,0,595
4250,20,right,female,6,61,坏人,tras.bmp,Good,Self,No,k,k,1,870
4250,20,right,female,6,62,常人,sqro.bmp,Bad,Other,No,k,k,1,813
4250,20,right,female,6,63,好人,tras.bmp,Good,Self,Yes,m,m,1,621
4250,20,right,female,6,64,常人,tras.bmp,Good,Self,No,k,k,1,706
4250,20,right,female,6,65,好人,sqrs.bmp,Bad,Self,No,k,k,1,803
4250,20,right,female,6,66,坏人,sqrs.bmp,Bad,Self,Yes,m,m,1,626
4250,20,right,female,6,67,坏人,sqrs.bmp,Bad,Self,Yes,m,m,1,555
4250,20,right,female,6,68,坏人,cirs.bmp,Ord,Self,No,k,k,1,591
4250,20,right,female,6,69,常人,ciro.bmp,Ord,Other,Yes,m,m,1,693
4250,20,right,female,6,70,常人,cirs.bmp,Ord,Self,Yes,m,m,1,743
4250,20,right,female,6,71,常人,trao.bmp,Good,Other,No,k,k,1,655
4250,20,right,female,6,72,坏人,sqro.bmp,Bad,Other,Yes,m,m,1,682
4250,20,right,female,6,73,好人,sqrs.bmp,Bad,Self,No,k,k,1,865
4250,20,right,female,6,74,坏人,tras.bmp,Good,Self,No,k,k,1,832
4250,20,right,female,6,75,好人,trao.bmp,Good,Other,Yes,m,m,1,838
4250,20,right,female,6,76,好人,trao.bmp,Good,Other,Yes,m,m,1,620
4250,20,right,female,6,77,常人,tras.bmp,Good,Self,No,k,k,1,612
4250,20,right,female,6,78,坏人,cirs.bmp,Ord,Self,No,m,k,0,957
4250,20,right,female,6,79,坏人,sqrs.bmp,Bad,Self,Yes,m,m,1,802
4250,20,right,female,6,80,好人,cirs.bmp,Ord,Self,No,k,k,1,956
4250,20,right,female,6,81,好人,tras.bmp,Good,Self,Yes,m,m,1,772
4250,20,right,female,6,82,坏人,trao.bmp,Good,Other,No,k,k,1,754
4250,20,right,female,6,83,常人,ciro.bmp,Ord,Other,Yes,m,m,1,677
4250,20,right,female,6,84,常人,sqro.bmp,Bad,Other,No,k,k,1,720
4250,20,right,female,6,85,好人,ciro.bmp,Ord,Other,No,k,k,1,854
4250,20,right,female,6,86,常人,cirs.bmp,Ord,Self,Yes,m,m,1,959
4250,20,right,female,6,87,坏人,sqro.bmp,Bad,Other,Yes,m,m,1,749
4250,20,right,female,6,88,好人,tras.bmp,Good,Self,Yes,m,m,1,656
4250,20,right,female,6,89,常人,cirs.bmp,Ord,Self,Yes,m,m,1,615
4250,20,right,female,6,90,常人,trao.bmp,Good,Other,No,k,k,1,820
4250,20,right,female,6,91,常人,sqrs.bmp,Bad,Self,No,k,k,1,958
4250,20,right,female,6,92,好人,sqro.bmp,Bad,Other,No,k,k,1,904
4250,20,right,female,6,93,常人,ciro.bmp,Ord,Other,Yes,k,m,0,808
4250,20,right,female,6,94,坏人,sqro.bmp,Bad,Other,Yes,k,m,0,1075
4250,20,right,female,6,95,坏人,sqrs.bmp,Bad,Self,Yes,m,m,1,582
4250,20,right,female,6,96,坏人,ciro.bmp,Ord,Other,No,k,k,1,703
4250,20,right,female,6,97,常人,ciro.bmp,Ord,Other,Yes,m,m,1,706
4250,20,right,female,6,98,常人,cirs.bmp,Ord,Self,Yes,m,m,1,548
4250,20,right,female,6,99,好人,tras.bmp,Good,Self,Yes,k,m,0,561
4250,20,right,female,6,100,好人,tras.bmp,Good,Self,Yes,m,m,1,853
4250,20,right,female,6,101,常人,cirs.bmp,Ord,Self,Yes,m,m,1,697
4250,20,right,female,6,102,坏人,sqrs.bmp,Bad,Self,Yes,m,m,1,605
4250,20,right,female,6,103,常人,tras.bmp,Good,Self,No,k,k,1,574
4250,20,right,female,6,104,好人,trao.bmp,Good,Other,Yes,m,m,1,629
4250,20,right,female,6,105,好人,cirs.bmp,Ord,Self,No,k,k,1,592
4250,20,right,female,6,106,坏人,tras.bmp,Good,Self,No,k,k,1,809
4250,20,right,female,6,107,常人,sqrs.bmp,Bad,Self,No,k,k,1,836
4250,20,right,female,6,108,好人,sqro.bmp,Bad,Other,No,k,k,1,819
4250,20,right,female,6,109,坏人,sqro.bmp,Bad,Other,Yes,m,m,1,828
4250,20,right,female,6,110,常人,trao.bmp,Good,Other,No,k,k,1,670
4250,20,right,female,6,111,常人,sqro.bmp,Bad,Other,No,k,k,1,662
4250,20,right,female,6,112,好人,sqrs.bmp,Bad,Self,No,k,k,1,998
4250,20,right,female,6,113,好人,ciro.bmp,Ord,Other,No,k,k,1,717
4250,20,right,female,6,114,坏人,cirs.bmp,Ord,Self,No,k,k,1,613
4250,20,right,female,6,115,好人,trao.bmp,Good,Other,Yes,m,m,1,685
4250,20,right,female,6,116,坏人,sqro.bmp,Bad,Other,Yes,k,m,0,863
4250,20,right,female,6,117,坏人,ciro.bmp,Ord,Other,No,m,k,0,633
4250,20,right,female,6,118,坏人,sqrs.bmp,Bad,Self,Yes,k,m,0,771
4250,20,right,female,6,119,常人,ciro.bmp,Ord,Other,Yes,m,m,1,702
4250,20,right,female,6,120,坏人,trao.bmp,Good,Other,No,k,k,1,604
4251,20,right,female,,1,常人,sqro.bmp,Ord,Other,Yes,,k,0,0
4251,20,right,female,,2,常人,tras.bmp,Bad,Self,No,k,m,0,264
4251,20,right,female,,3,常人,ciro.bmp,Good,Other,No,m,m,1,241
4251,20,right,female,,4,坏人,ciro.bmp,Good,Other,No,k,m,0,268
4251,20,right,female,,5,好人,sqrs.bmp,Ord,Self,No,m,m,1,201
4251,20,right,female,,6,坏人,trao.bmp,Bad,Other,Yes,k,k,1,318
4251,20,right,female,,7,常人,sqrs.bmp,Ord,Self,Yes,k,k,1,239
4251,20,right,female,,8,好人,cirs.bmp,Good,Self,Yes,k,k,1,239
4251,20,right,female,,9,坏人,sqro.bmp,Ord,Other,No,k,m,0,305
4251,20,right,female,,10,好人,tras.bmp,Bad,Self,No,m,m,1,238
4251,20,right,female,,11,好人,sqro.bmp,Ord,Other,No,m,m,1,271
4251,20,right,female,,12,好人,ciro.bmp,Good,Other,Yes,k,k,1,326
4251,20,right,female,,13,常人,cirs.bmp,Good,Self,No,m,m,1,192
4251,20,right,female,,14,常人,sqro.bmp,Ord,Other,Yes,k,k,1,248
4251,20,right,female,,15,好人,trao.bmp,Bad,Other,No,k,m,0,303
4251,20,right,female,,16,坏人,cirs.bmp,Good,Self,No,m,m,1,209
4251,20,right,female,,17,坏人,trao.bmp,Bad,Other,Yes,m,k,0,298
4251,20,right,female,,18,常人,sqrs.bmp,Ord,Self,Yes,k,k,1,213
4251,20,right,female,,19,坏人,sqrs.bmp,Ord,Self,No,k,m,0,224
4251,20,right,female,,20,常人,trao.bmp,Bad,Other,No,m,m,1,212
4251,20,right,female,,21,坏人,tras.bmp,Bad,Self,Yes,m,k,0,291
4251,20,right,female,,22,好人,ciro.bmp,Good,Other,Yes,k,k,1,236
4251,20,right,female,,23,坏人,tras.bmp,Bad,Self,Yes,k,k,1,207
4251,20,right,female,,24,好人,cirs.bmp,Good,Self,Yes,m,k,0,219
4251,20,right,female,1,1,坏人,cirs.bmp,Good,Self,No,,m,0,0
4251,20,right,female,1,2,常人,sqro.bmp,Ord,Other,Yes,m,k,0,323
4251,20,right,female,1,3,好人,sqro.bmp,Ord,Other,No,k,m,0,222
4251,20,right,female,1,4,常人,sqrs.bmp,Ord,Self,Yes,m,k,0,293
4251,20,right,female,1,5,好人,ciro.bmp,Good,Other,Yes,k,k,1,259
4251,20,right,female,1,6,常人,cirs.bmp,Good,Self,No,k,m,0,233
4251,20,right,female,1,7,好人,cirs.bmp,Good,Self,Yes,m,k,0,261
4251,20,right,female,1,8,好人,ciro.bmp,Good,Other,Yes,k,k,1,256
4251,20,right,female,1,9,坏人,trao.bmp,Bad,Other,Yes,k,k,1,228
4251,20,right,female,1,10,坏人,sqrs.bmp,Ord,Self,No,m,m,1,171
4251,20,right,female,1,11,坏人,sqro.bmp,Ord,Other,No,,m,0,0
4251,20,right,female,1,12,好人,tras.bmp,Bad,Self,No,m,m,1,224
4251,20,right,female,1,13,好人,sqrs.bmp,Ord,Self,No,k,m,0,107
4251,20,right,female,1,14,坏人,trao.bmp,Bad,Other,Yes,m,k,0,352
4251,20,right,female,1,15,好人,trao.bmp,Bad,Other,No,k,m,0,114
4251,20,right,female,1,16,坏人,tras.bmp,Bad,Self,Yes,k,k,1,107
4251,20,right,female,1,17,常人,sqrs.bmp,Ord,Self,Yes,m,k,0,302
4251,20,right,female,1,18,坏人,tras.bmp,Bad,Self,Yes,k,k,1,129
4251,20,right,female,1,19,常人,tras.bmp,Bad,Self,No,k,m,0,241
4251,20,right,female,1,20,常人,ciro.bmp,Good,Other,No,m,m,1,259
4251,20,right,female,1,21,坏人,ciro.bmp,Good,Other,No,k,m,0,242
4251,20,right,female,1,22,常人,sqro.bmp,Ord,Other,Yes,m,k,0,253
4251,20,right,female,1,23,常人,trao.bmp,Bad,Other,No,k,m,0,76
4251,20,right,female,1,24,好人,cirs.bmp,Good,Self,Yes,k,k,1,97
4251,20,right,female,1,25,常人,sqrs.bmp,Ord,Self,Yes,k,k,1,92
4251,20,right,female,1,26,常人,sqro.bmp,Ord,Other,Yes,k,k,1,110
4251,20,right,female,1,27,坏人,ciro.bmp,Good,Other,No,k,m,0,300
4251,20,right,female,1,28,好人,cirs.bmp,Good,Self,Yes,m,k,0,350
4251,20,right,female,1,29,好人,ciro.bmp,Good,Other,Yes,k,k,1,267
4251,20,right,female,1,30,坏人,trao.bmp,Bad,Other,Yes,m,k,0,327
4251,20,right,female,1,31,常人,trao.bmp,Bad,Other,No,k,m,0,93
4251,20,right,female,1,32,坏人,trao.bmp,Bad,Other,Yes,m,k,0,278
4251,20,right,female,1,33,坏人,cirs.bmp,Good,Self,No,k,m,0,272
4251,20,right,female,1,34,好人,trao.bmp,Bad,Other,No,m,m,1,250
4251,20,right,female,1,35,常人,sqrs.bmp,Ord,Self,Yes,k,k,1,183
4251,20,right,female,1,36,常人,sqro.bmp,Ord,Other,Yes,k,k,1,234
4251,20,right,female,1,37,好人,cirs.bmp,Good,Self,Yes,k,k,1,245
4251,20,right,female,1,38,坏人,tras.bmp,Bad,Self,Yes,m,k,0,339
4251,20,right,female,1,39,常人,tras.bmp,Bad,Self,No,k,m,0,212
4251,20,right,female,1,40,好人,ciro.bmp,Good,Other,Yes,m,k,0,233
4251,20,right,female,1,41,好人,sqrs.bmp,Ord,Self,No,k,m,0,188
4251,20,right,female,1,42,常人,cirs.bmp,Good,Self,No,k,m,0,260
4251,20,right,female,1,43,坏人,sqrs.bmp,Ord,Self,No,m,m,1,154
4251,20,right,female,1,44,常人,ciro.bmp,Good,Other,No,k,m,0,132
4251,20,right,female,1,45,坏人,tras.bmp,Bad,Self,Yes,k,k,1,170
4251,20,right,female,1,46,好人,sqro.bmp,Ord,Other,No,k,m,0,242
4251,20,right,female,1,47,好人,tras.bmp,Bad,Self,No,m,m,1,237
4251,20,right,female,1,48,坏人,sqro.bmp,Ord,Other,No,k,m,0,192
4251,20,right,female,1,49,坏人,ciro.bmp,Good,Other,No,m,m,1,237
4251,20,right,female,1,50,常人,cirs.bmp,Good,Self,No,m,m,1,226
4251,20,right,female,1,51,坏人,cirs.bmp,Good,Self,No,k,m,0,437
4251,20,right,female,1,52,常人,sqro.bmp,Ord,Other,Yes,m,k,0,208
4251,20,right,female,1,53,好人,tras.bmp,Bad,Self,No,m,m,1,241
4251,20,right,female,1,54,常人,tras.bmp,Bad,Self,No,k,m,0,648
4251,20,right,female,1,55,坏人,tras.bmp,Bad,Self,Yes,m,k,0,158
4251,20,right,female,1,56,好人,cirs.bmp,Good,Self,Yes,k,k,1,286
4251,20,right,female,1,57,好人,trao.bmp,Bad,Other,No,k,m,0,198
4251,20,right,female,1,58,好人,ciro.bmp,Good,Other,Yes,m,k,0,237
4251,20,right,female,1,59,常人,sqro.bmp,Ord,Other,Yes,m,k,0,241
4251,20,right,female,1,60,坏人,trao.bmp,Bad,Other,Yes,k,k,1,168
4251,20,right,female,1,61,坏人,sqro.bmp,Ord,Other,No,k,m,0,241
4251,20,right,female,1,62,常人,ciro.bmp,Good,Other,No,m,m,1,224
4251,20,right,female,1,63,坏人,trao.bmp,Bad,Other,Yes,k,k,1,68
4251,20,right,female,1,64,常人,trao.bmp,Bad,Other,No,m,m,1,258
4251,20,right,female,1,65,常人,sqrs.bmp,Ord,Self,Yes,k,k,1,285
4251,20,right,female,1,66,好人,sqro.bmp,Ord,Other,No,k,m,0,190
4251,20,right,female,1,67,好人,cirs.bmp,Good,Self,Yes,m,k,0,119
4251,20,right,female,1,68,好人,ciro.bmp,Good,Other,Yes,k,k,1,163
4251,20,right,female,1,69,好人,sqrs.bmp,Ord,Self,No,k,m,0,241
4251,20,right,female,1,70,坏人,tras.bmp,Bad,Self,Yes,m,k,0,283
4251,20,right,female,1,71,坏人,sqrs.bmp,Ord,Self,No,k,m,0,242
4251,20,right,female,1,72,常人,sqrs.bmp,Ord,Self,Yes,k,k,1,126
4251,20,right,female,1,73,坏人,tras.bmp,Bad,Self,Yes,k,k,1,159
4251,20,right,female,1,74,常人,tras.bmp,Bad,Self,No,k,m,0,264
4251,20,right,female,1,75,坏人,sqro.bmp,Ord,Other,No,m,m,1,259
4251,20,right,female,1,76,坏人,tras.bmp,Bad,Self,Yes,m,k,0,325
4251,20,right,female,1,77,常人,sqrs.bmp,Ord,Self,Yes,k,k,1,330
4251,20,right,female,1,78,好人,trao.bmp,Bad,Other,No,k,m,0,247
4251,20,right,female,1,79,好人,ciro.bmp,Good,Other,Yes,m,k,0,112
4251,20,right,female,1,80,常人,sqrs.bmp,Ord,Self,Yes,k,k,1,273
4251,20,right,female,1,81,好人,sqro.bmp,Ord,Other,No,k,m,0,228
4251,20,right,female,1,82,常人,sqro.bmp,Ord,Other,Yes,m,k,0,112
4251,20,right,female,1,83,坏人,sqrs.bmp,Ord,Self,No,k,m,0,183
4251,20,right,female,1,84,坏人,ciro.bmp,Good,Other,No,,m,0,0
4251,20,right,female,1,85,常人,ciro.bmp,Good,Other,No,,m,0,0
4251,20,right,female,1,86,坏人,trao.bmp,Bad,Other,Yes,,k,0,0
4251,20,right,female,1,87,好人,tras.bmp,Bad,Self,No,k,m,0,227
4251,20,right,female,1,88,常人,trao.bmp,Bad,Other,No,k,m,0,66
4251,20,right,female,1,89,好人,sqrs.bmp,Ord,Self,No,m,m,1,277
4251,20,right,female,1,90,好人,cirs.bmp,Good,Self,Yes,k,k,1,284
4251,20,right,female,1,91,好人,cirs.bmp,Good,Self,Yes,m,k,0,250
4251,20,right,female,1,92,常人,cirs.bmp,Good,Self,No,k,m,0,265
4251,20,right,female,1,93,常人,sqro.bmp,Ord,Other,Yes,k,k,1,404
4251,20,right,female,1,94,坏人,cirs.bmp,Good,Self,No,k,m,0,269
4251,20,right,female,1,95,好人,ciro.bmp,Good,Other,Yes,m,k,0,131
4251,20,right,female,1,96,坏人,trao.bmp,Bad,Other,Yes,m,k,0,109
4251,20,right,female,1,97,好人,ciro.bmp,Good,Other,Yes,k,k,1,281
4251,20,right,female,1,98,坏人,sqrs.bmp,Ord,Self,No,k,m,0,119
4251,20,right,female,1,99,常人,cirs.bmp,Good,Self,No,m,m,1,114
4251,20,right,female,1,100,好人,tras.bmp,Bad,Self,No,k,m,0,298
4251,20,right,female,1,101,常人,ciro.bmp,Good,Other,No,m,m,1,258
4251,20,right,female,1,102,好人,cirs.bmp,Good,Self,Yes,m,k,0,152
4251,20,right,female,1,103,好人,sqrs.bmp,Ord,Self,No,m,m,1,174
4251,20,right,female,1,104,好人,trao.bmp,Bad,Other,No,m,m,1,52
4251,20,right,female,1,105,常人,sqrs.bmp,Ord,Self,Yes,k,k,1,58
4251,20,right,female,1,106,常人,trao.bmp,Bad,Other,No,k,m,0,230
4251,20,right,female,1,107,好人,sqro.bmp,Ord,Other,No,m,m,1,163
4251,20,right,female,1,108,坏人,sqro.bmp,Ord,Other,No,k,m,0,212
4251,20,right,female,1,109,好人,ciro.bmp,Good,Other,Yes,m,k,0,133
4251,20,right,female,1,110,坏人,ciro.bmp,Good,Other,No,k,m,0,255
4251,20,right,female,1,111,常人,sqro.bmp,Ord,Other,Yes,m,k,0,110
4251,20,right,female,1,112,坏人,trao.bmp,Bad,Other,Yes,k,k,1,182
4251,20,right,female,1,113,坏人,cirs.bmp,Good,Self,No,k,m,0,315
4251,20,right,female,1,114,常人,tras.bmp,Bad,Self,No,m,m,1,359
4251,20,right,female,1,115,常人,sqrs.bmp,Ord,Self,Yes,m,k,0,297
4251,20,right,female,1,116,常人,sqro.bmp,Ord,Other,Yes,k,k,1,140
4251,20,right,female,1,117,坏人,trao.bmp,Bad,Other,Yes,m,k,0,278
4251,20,right,female,1,118,坏人,tras.bmp,Bad,Self,Yes,k,k,1,250
4251,20,right,female,1,119,好人,cirs.bmp,Good,Self,Yes,k,k,1,395
4251,20,right,female,1,120,坏人,tras.bmp,Bad,Self,Yes,k,k,1,297
4251,20,right,female,2,1,坏人,trao.bmp,Bad,Other,Yes,,k,0,0
4251,20,right,female,2,2,常人,tras.bmp,Bad,Self,No,,m,0,0
4251,20,right,female,2,3,坏人,trao.bmp,Bad,Other,Yes,k,k,1,606
4251,20,right,female,2,4,常人,sqrs.bmp,Ord,Self,Yes,k,k,1,366
4251,20,right,female,2,5,坏人,cirs.bmp,Good,Self,No,k,m,0,266
4251,20,right,female,2,6,常人,sqrs.bmp,Ord,Self,Yes,m,k,0,249
4251,20,right,female,2,7,好人,cirs.bmp,Good,Self,Yes,k,k,1,266
4251,20,right,female,2,8,坏人,tras.bmp,Bad,Self,Yes,k,k,1,666
4251,20,right,female,2,9,坏人,ciro.bmp,Good,Other,No,k,m,0,348
4251,20,right,female,2,10,好人,sqrs.bmp,Ord,Self,No,m,m,1,643
4251,20,right,female,2,11,好人,ciro.bmp,Good,Other,Yes,k,k,1,347
4251,20,right,female,2,12,好人,tras.bmp,Bad,Self,No,m,m,1,671
4251,20,right,female,2,13,常人,trao.bmp,Bad,Other,No,k,m,0,447
4251,20,right,female,2,14,好人,ciro.bmp,Good,Other,Yes,k,k,1,781
4251,20,right,female,2,15,常人,cirs.bmp,Good,Self,No,k,m,0,447
4251,20,right,female,2,16,好人,cirs.bmp,Good,Self,Yes,k,k,1,792
4251,20,right,female,2,17,坏人,tras.bmp,Bad,Self,Yes,m,k,0,397
4251,20,right,female,2,18,坏人,sqro.bmp,Ord,Other,No,k,m,0,296
4251,20,right,female,2,19,好人,sqro.bmp,Ord,Other,No,m,m,1,451
4251,20,right,female,2,20,坏人,sqrs.bmp,Ord,Self,No,k,m,0,356
4251,20,right,female,2,21,好人,trao.bmp,Bad,Other,No,m,m,1,351
4251,20,right,female,2,22,常人,sqro.bmp,Ord,Other,Yes,k,k,1,818
4251,20,right,female,2,23,常人,ciro.bmp,Good,Other,No,m,m,1,562
4251,20,right,female,2,24,常人,sqro.bmp,Ord,Other,Yes,k,k,1,367
4251,20,right,female,2,25,坏人,ciro.bmp,Good,Other,No,m,m,1,289
4251,20,right,female,2,26,常人,sqrs.bmp,Ord,Self,Yes,m,k,0,384
4251,20,right,female,2,27,坏人,tras.bmp,Bad,Self,Yes,k,k,1,266
4251,20,right,female,2,28,好人,ciro.bmp,Good,Other,Yes,k,k,1,484
4251,20,right,female,2,29,好人,cirs.bmp,Good,Self,Yes,k,k,1,466
4251,20,right,female,2,30,坏人,sqrs.bmp,Ord,Self,No,m,m,1,739
4251,20,right,female,2,31,常人,ciro.bmp,Good,Other,No,k,m,0,716
4251,20,right,female,2,32,常人,sqrs.bmp,Ord,Self,Yes,k,k,1,845
4251,20,right,female,2,33,好人,tras.bmp,Bad,Self,No,m,m,1,627
4251,20,right,female,2,34,常人,sqro.bmp,Ord,Other,Yes,k,k,1,671
4251,20,right,female,2,35,坏人,sqro.bmp,Ord,Other,No,m,m,1,638
4251,20,right,female,2,36,坏人,tras.bmp,Bad,Self,Yes,k,k,1,877
4251,20,right,female,2,37,坏人,cirs.bmp,Good,Self,No,m,m,1,743
4251,20,right,female,2,38,常人,trao.bmp,Bad,Other,No,k,m,0,697
4251,20,right,female,2,39,好人,sqro.bmp,Ord,Other,No,m,m,1,646
4251,20,right,female,2,40,好人,cirs.bmp,Good,Self,Yes,k,k,1,446
4251,20,right,female,2,41,坏人,trao.bmp,Bad,Other,Yes,m,k,0,474
4251,20,right,female,2,42,常人,cirs.bmp,Good,Self,No,k,m,0,776
4251,20,right,female,2,43,常人,sqro.bmp,Ord,Other,Yes,m,k,0,592
4251,20,right,female,2,44,常人,tras.bmp,Bad,Self,No,k,m,0,475
4251,20,right,female,2,45,坏人,trao.bmp,Bad,Other,Yes,k,k,1,697
4251,20,right,female,2,46,好人,ciro.bmp,Good,Other,Yes,k,k,1,848
4251,20,right,female,2,47,好人,trao.bmp,Bad,Other,No,m,m,1,909
4251,20,right,female,2,48,好人,sqrs.bmp,Ord,Self,No,k,m,0,529
4251,20,right,female,2,49,坏人,cirs.bmp,Good,Self,No,k,m,0,473
4251,20,right,female,2,50,好人,cirs.bmp,Good,Self,Yes,m,k,0,713
4251,20,right,female,2,51,常人,trao.bmp,Bad,Other,No,k,m,0,628
4251,20,right,female,2,52,常人,sqrs.bmp,Ord,Self,Yes,m,k,0,432
4251,20,right,female,2,53,好人,tras.bmp,Bad,Self,No,k,m,0,740
4251,20,right,female,2,54,常人,tras.bmp,Bad,Self,No,m,m,1,884
4251,20,right,female,2,55,常人,sqrs.bmp,Ord,Self,Yes,,k,0,0
4251,20,right,female,2,56,常人,sqro.bmp,Ord,Other,Yes,k,k,1,410
4251,20,right,female,2,57,好人,ciro.bmp,Good,Other,Yes,k,k,1,722
4251,20,right,female,2,58,好人,cirs.bmp,Good,Self,Yes,k,k,1,582
4251,20,right,female,2,59,好人,sqro.bmp,Ord,Other,No,k,m,0,765
4251,20,right,female,2,60,坏人,sqro.bmp,Ord,Other,No,m,m,1,419
4251,20,right,female,2,61,常人,cirs.bmp,Good,Self,No,,m,0,0
4251,20,right,female,2,62,坏人,ciro.bmp,Good,Other,No,m,m,1,481
4251,20,right,female,2,63,好人,sqrs.bmp,Ord,Self,No,k,m,0,463
4251,20,right,female,2,64,坏人,tras.bmp,Bad,Self,Yes,m,k,0,162
4251,20,right,female,2,65,常人,sqro.bmp,Ord,Other,Yes,k,k,1,347
4251,20,right,female,2,66,坏人,sqrs.bmp,Ord,Self,No,k,m,0,530
4251,20,right,female,2,67,坏人,trao.bmp,Bad,Other,Yes,m,k,0,368
4251,20,right,female,2,68,坏人,trao.bmp,Bad,Other,Yes,k,k,1,456
4251,20,right,female,2,69,好人,trao.bmp,Bad,Other,No,m,m,1,836
4251,20,right,female,2,70,常人,ciro.bmp,Good,Other,No,k,m,0,892
4251,20,right,female,2,71,好人,ciro.bmp,Good,Other,Yes,k,k,1,690
4251,20,right,female,2,72,坏人,tras.bmp,Bad,Self,Yes,k,k,1,808
4251,20,right,female,2,73,好人,trao.bmp,Bad,Other,No,m,m,1,846
4251,20,right,female,2,74,常人,cirs.bmp,Good,Self,No,,m,0,0
4251,20,right,female,2,75,坏人,sqro.bmp,Ord,Other,No,k,m,0,249
4251,20,right,female,2,76,常人,sqro.bmp,Ord,Other,Yes,m,k,0,789
4251,20,right,female,2,77,好人,ciro.bmp,Good,Other,Yes,k,k,1,888
4251,20,right,female,2,78,常人,sqrs.bmp,Ord,Self,Yes,k,k,1,861
4251,20,right,female,2,79,好人,ciro.bmp,Good,Other,Yes,k,k,1,482
4251,20,right,female,2,80,常人,sqro.bmp,Ord,Other,Yes,k,k,1,632
4251,20,right,female,2,81,好人,tras.bmp,Bad,Self,No,m,m,1,370
4251,20,right,female,2,82,坏人,tras.bmp,Bad,Self,Yes,k,k,1,348
4251,20,right,female,2,83,常人,ciro.bmp,Good,Other,No,,m,0,0
4251,20,right,female,2,84,坏人,trao.bmp,Bad,Other,Yes,k,k,1,973
4251,20,right,female,2,85,坏人,cirs.bmp,Good,Self,No,k,m,0,958
4251,20,right,female,2,86,好人,cirs.bmp,Good,Self,Yes,k,k,1,803
4251,20,right,female,2,87,好人,sqrs.bmp,Ord,Self,No,m,m,1,1025
4251,20,right,female,2,88,常人,tras.bmp,Bad,Self,No,k,m,0,798
4251,20,right,female,2,89,坏人,tras.bmp,Bad,Self,Yes,m,k,0,659
4251,20,right,female,2,90,坏人,trao.bmp,Bad,Other,Yes,,k,0,0
4251,20,right,female,2,91,常人,sqrs.bmp,Ord,Self,Yes,,k,0,0
4251,20,right,female,2,92,坏人,ciro.bmp,Good,Other,No,k,m,0,216
4251,20,right,female,2,93,好人,cirs.bmp,Good,Self,Yes,k,k,1,612
4251,20,right,female,2,94,好人,sqro.bmp,Ord,Other,No,k,m,0,372
4251,20,right,female,2,95,坏人,sqrs.bmp,Ord,Self,No,m,m,1,333
4251,20,right,female,2,96,常人,trao.bmp,Bad,Other,No,k,m,0,215
4251,20,right,female,2,97,好人,cirs.bmp,Good,Self,Yes,m,k,0,561
4251,20,right,female,2,98,好人,ciro.bmp,Good,Other,Yes,k,k,1,650
4251,20,right,female,2,99,坏人,sqrs.bmp,Ord,Self,No,m,m,1,806
4251,20,right,female,2,100,坏人,trao.bmp,Bad,Other,Yes,k,k,1,927
4251,20,right,female,2,101,好人,ciro.bmp,Good,Other,Yes,m,k,0,633
4251,20,right,female,2,102,好人,cirs.bmp,Good,Self,Yes,k,k,1,560
4251,20,right,female,2,103,坏人,tras.bmp,Bad,Self,Yes,m,k,0,732
4251,20,right,female,2,104,好人,tras.bmp,Bad,Self,No,k,m,0,492
4251,20,right,female,2,105,常人,cirs.bmp,Good,Self,No,m,m,1,253
4251,20,right,female,2,106,常人,sqrs.bmp,Ord,Self,Yes,k,k,1,348
4251,20,right,female,2,107,常人,tras.bmp,Bad,Self,No,m,m,1,1073
4251,20,right,female,2,108,常人,sqrs.bmp,Ord,Self,Yes,m,k,0,960
4251,20,right,female,2,109,坏人,tras.bmp,Bad,Self,Yes,k,k,1,504
4251,20,right,female,2,110,常人,trao.bmp,Bad,Other,No,m,m,1,1045
4251,20,right,female,2,111,坏人,trao.bmp,Bad,Other,Yes,k,k,1,476
4251,20,right,female,2,112,坏人,ciro.bmp,Good,Other,No,m,m,1,704
4251,20,right,female,2,113,好人,trao.bmp,Bad,Other,No,k,m,0,810
4251,20,right,female,2,114,常人,ciro.bmp,Good,Other,No,k,m,0,887
4251,20,right,female,2,115,好人,sqro.bmp,Ord,Other,No,k,m,0,837
4251,20,right,female,2,116,好人,sqrs.bmp,Ord,Self,No,k,m,0,631
4251,20,right,female,2,117,坏人,sqro.bmp,Ord,Other,No,,m,0,0
4251,20,right,female,2,118,常人,sqro.bmp,Ord,Other,Yes,k,k,1,954
4251,20,right,female,2,119,坏人,cirs.bmp,Good,Self,No,m,m,1,435
4251,20,right,female,2,120,常人,sqro.bmp,Ord,Other,Yes,k,k,1,313
4251,20,right,female,3,1,好人,cirs.bmp,Good,Self,Yes,,k,0,0
4251,20,right,female,3,2,坏人,trao.bmp,Bad,Other,Yes,k,k,1,406
4251,20,right,female,3,3,坏人,sqro.bmp,Ord,Other,No,m,m,1,1086
4251,20,right,female,3,4,坏人,tras.bmp,Bad,Self,Yes,k,k,1,645
4251,20,right,female,3,5,好人,sqrs.bmp,Ord,Self,No,m,m,1,814
4251,20,right,female,3,6,常人,ciro.bmp,Good,Other,No,k,m,0,746
4251,20,right,female,3,7,好人,sqro.bmp,Ord,Other,No,m,m,1,1002
4251,20,right,female,3,8,常人,sqrs.bmp,Ord,Self,Yes,k,k,1,729
4251,20,right,female,3,9,常人,tras.bmp,Bad,Self,No,m,m,1,919
4251,20,right,female,3,10,常人,cirs.bmp,Good,Self,No,m,m,1,952
4251,20,right,female,3,11,好人,ciro.bmp,Good,Other,Yes,k,k,1,578
4251,20,right,female,3,12,常人,trao.bmp,Bad,Other,No,m,m,1,738
4251,20,right,female,3,13,坏人,trao.bmp,Bad,Other,Yes,k,k,1,884
4251,20,right,female,3,14,好人,cirs.bmp,Good,Self,Yes,m,k,0,533
4251,20,right,female,3,15,常人,sqro.bmp,Ord,Other,Yes,k,k,1,783
4251,20,right,female,3,16,坏人,sqrs.bmp,Ord,Self,No,k,m,0,582
4251,20,right,female,3,17,好人,ciro.bmp,Good,Other,Yes,k,k,1,782
4251,20,right,female,3,18,好人,tras.bmp,Bad,Self,No,m,m,1,610
4251,20,right,female,3,19,常人,sqrs.bmp,Ord,Self,Yes,k,k,1,849
4251,20,right,female,3,20,坏人,cirs.bmp,Good,Self,No,m,m,1,938
4251,20,right,female,3,21,坏人,ciro.bmp,Good,Other,No,k,m,0,870
4251,20,right,female,3,22,好人,trao.bmp,Bad,Other,No,m,m,1,687
4251,20,right,female,3,23,坏人,tras.bmp,Bad,Self,Yes,k,k,1,759
4251,20,right,female,3,24,常人,sqro.bmp,Ord,Other,Yes,m,k,0,625
4251,20,right,female,3,25,坏人,ciro.bmp,Good,Other,No,m,m,1,992
4251,20,right,female,3,26,常人,tras.bmp,Bad,Self,No,m,m,1,1065
4251,20,right,female,3,27,好人,ciro.bmp,Good,Other,Yes,k,k,1,908
4251,20,right,female,3,28,坏人,tras.bmp,Bad,Self,Yes,k,k,1,702
4251,20,right,female,3,29,坏人,tras.bmp,Bad,Self,Yes,k,k,1,517
4251,20,right,female,3,30,好人,ciro.bmp,Good,Other,Yes,,k,0,0
4251,20,right,female,3,31,坏人,sqrs.bmp,Ord,Self,No,k,m,0,377
4251,20,right,female,3,32,常人,sqro.bmp,Ord,Other,Yes,k,k,1,387
4251,20,right,female,3,33,常人,ciro.bmp,Good,Other,No,m,m,1,871
4251,20,right,female,3,34,常人,sqrs.bmp,Ord,Self,Yes,k,k,1,402
4251,20,right,female,3,35,常人,sqro.bmp,Ord,Other,Yes,m,k,0,420
4251,20,right,female,3,36,好人,sqrs.bmp,Ord,Self,No,k,m,0,197
4251,20,right,female,3,37,常人,trao.bmp,Bad,Other,No,m,m,1,877
4251,20,right,female,3,38,坏人,trao.bmp,Bad,Other,Yes,k,k,1,734
4251,20,right,female,3,39,坏人,sqro.bmp,Ord,Other,No,m,m,1,962
4251,20,right,female,3,40,好人,sqro.bmp,Ord,Other,No,m,m,1,727
4251,20,right,female,3,41,好人,cirs.bmp,Good,Self,Yes,k,k,1,426
4251,20,right,female,3,42,好人,cirs.bmp,Good,Self,Yes,k,k,1,615
4251,20,right,female,3,43,坏人,trao.bmp,Bad,Other,Yes,k,k,1,459
4251,20,right,female,3,44,坏人,cirs.bmp,Good,Self,No,m,m,1,732
4251,20,right,female,3,45,好人,trao.bmp,Bad,Other,No,m,m,1,569
4251,20,right,female,3,46,好人,tras.bmp,Bad,Self,No,m,m,1,664
4251,20,right,female,3,47,常人,cirs.bmp,Good,Self,No,m,m,1,780
4251,20,right,female,3,48,常人,sqrs.bmp,Ord,Self,Yes,k,k,1,523
4251,20,right,female,3,49,坏人,ciro.bmp,Good,Other,No,k,m,0,489
4251,20,right,female,3,50,坏人,cirs.bmp,Good,Self,No,m,m,1,222
4251,20,right,female,3,51,常人,sqro.bmp,Ord,Other,Yes,m,k,0,294
4251,20,right,female,3,52,常人,cirs.bmp,Good,Self,No,k,m,0,204
4251,20,right,female,3,53,好人,sqrs.bmp,Ord,Self,No,k,m,0,516
4251,20,right,female,3,54,好人,ciro.bmp,Good,Other,Yes,k,k,1,890
4251,20,right,female,3,55,坏人,sqro.bmp,Ord,Other,No,m,m,1,806
4251,20,right,female,3,56,常人,ciro.bmp,Good,Other,No,k,m,0,625
4251,20,right,female,3,57,好人,tras.bmp,Bad,Self,No,m,m,1,982
4251,20,right,female,3,58,常人,sqrs.bmp,Ord,Self,Yes,m,k,0,680
4251,20,right,female,3,59,常人,trao.bmp,Bad,Other,No,k,m,0,389
4251,20,right,female,3,60,坏人,trao.bmp,Bad,Other,Yes,k,k,1,780
4251,20,right,female,3,61,常人,sqro.bmp,Ord,Other,Yes,m,k,0,780
4251,20,right,female,3,62,好人,cirs.bmp,Good,Self,Yes,k,k,1,456
4251,20,right,female,3,63,好人,sqro.bmp,Ord,Other,No,k,m,0,417
4251,20,right,female,3,64,常人,sqrs.bmp,Ord,Self,Yes,m,k,0,656
4251,20,right,female,3,65,坏人,tras.bmp,Bad,Self,Yes,k,k,1,323
4251,20,right,female,3,66,好人,trao.bmp,Bad,Other,No,,m,0,0
4251,20,right,female,3,67,坏人,trao.bmp,Bad,Other,Yes,k,k,1,355
4251,20,right,female,3,68,好人,cirs.bmp,Good,Self,Yes,k,k,1,600
4251,20,right,female,3,69,常人,tras.bmp,Bad,Self,No,k,m,0,511
4251,20,right,female,3,70,坏人,tras.bmp,Bad,Self,Yes,k,k,1,800
4251,20,right,female,3,71,坏人,sqrs.bmp,Ord,Self,No,m,m,1,783
4251,20,right,female,3,72,好人,ciro.bmp,Good,Other,Yes,k,k,1,837
4251,20,right,female,3,73,好人,ciro.bmp,Good,Other,Yes,k,k,1,872
4251,20,right,female,3,74,好人,trao.bmp,Bad,Other,No,k,m,0,631
4251,20,right,female,3,75,好人,sqrs.bmp,Ord,Self,No,m,m,1,1065
4251,20,right,female,3,76,常人,sqro.bmp,Ord,Other,Yes,m,k,0,687
4251,20,right,female,3,77,坏人,trao.bmp,Bad,Other,Yes,k,k,1,660
4251,20,right,female,3,78,坏人,ciro.bmp,Good,Other,No,,m,0,0
4251,20,right,female,3,79,好人,tras.bmp,Bad,Self,No,k,m,0,588
4251,20,right,female,3,80,坏人,sqrs.bmp,Ord,Self,No,k,m,0,816
4251,20,right,female,3,81,常人,sqrs.bmp,Ord,Self,Yes,m,k,0,704
4251,20,right,female,3,82,好人,cirs.bmp,Good,Self,Yes,k,k,1,899
4251,20,right,female,3,83,常人,ciro.bmp,Good,Other,No,k,m,0,559
4251,20,right,female,3,84,常人,sqro.bmp,Ord,Other,Yes,k,k,1,771
4251,20,right,female,3,85,坏人,trao.bmp,Bad,Other,Yes,k,k,1,732
4251,20,right,female,3,86,坏人,tras.bmp,Bad,Self,Yes,m,k,0,993
4251,20,right,female,3,87,常人,sqrs.bmp,Ord,Self,Yes,k,k,1,787
4251,20,right,female,3,88,坏人,tras.bmp,Bad,Self,Yes,k,k,1,899
4251,20,right,female,3,89,常人,cirs.bmp,Good,Self,No,k,m,0,883
4251,20,right,female,3,90,坏人,sqro.bmp,Ord,Other,No,k,m,0,817
4251,20,right,female,3,91,好人,cirs.bmp,Good,Self,Yes,m,k,0,867
4251,20,right,female,3,92,好人,sqro.bmp,Ord,Other,No,k,m,0,650
4251,20,right,female,3,93,常人,trao.bmp,Bad,Other,No,,m,0,0
4251,20,right,female,3,94,好人,ciro.bmp,Good,Other,Yes,k,k,1,828
4251,20,right,female,3,95,坏人,cirs.bmp,Good,Self,No,k,m,0,860
4251,20,right,female,3,96,常人,tras.bmp,Bad,Self,No,,m,0,0
4251,20,right,female,3,97,坏人,cirs.bmp,Good,Self,No,k,m,0,860
4251,20,right,female,3,98,常人,cirs.bmp,Good,Self,No,m,m,1,342
4251,20,right,female,3,99,坏人,trao.bmp,Bad,Other,Yes,k,k,1,860
4251,20,right,female,3,100,坏人,tras.bmp,Bad,Self,Yes,k,k,1,787
4251,20,right,female,3,101,好人,ciro.bmp,Good,Other,Yes,m,k,0,775
4251,20,right,female,3,102,好人,cirs.bmp,Good,Self,Yes,k,k,1,570
4251,20,right,female,3,103,坏人,sqrs.bmp,Ord,Self,No,k,m,0,954
4251,20,right,female,3,104,常人,tras.bmp,Bad,Self,No,m,m,1,719
4251,20,right,female,3,105,常人,ciro.bmp,Good,Other,No,k,m,0,1054
4251,20,right,female,3,106,好人,sqro.bmp,Ord,Other,No,,m,0,0
4251,20,right,female,3,107,好人,sqrs.bmp,Ord,Self,No,,m,0,0
4251,20,right,female,3,108,常人,sqrs.bmp,Ord,Self,Yes,k,k,1,327
4251,20,right,female,3,109,坏人,tras.bmp,Bad,Self,Yes,k,k,1,834
4251,20,right,female,3,110,常人,sqro.bmp,Ord,Other,Yes,k,k,1,445
4251,20,right,female,3,111,常人,trao.bmp,Bad,Other,No,k,m,0,756
4251,20,right,female,3,112,坏人,trao.bmp,Bad,Other,Yes,k,k,1,705
4251,20,right,female,3,113,好人,ciro.bmp,Good,Other,Yes,k,k,1,594
4251,20,right,female,3,114,好人,cirs.bmp,Good,Self,Yes,k,k,1,571
4251,20,right,female,3,115,坏人,sqro.bmp,Ord,Other,No,m,m,1,654
4251,20,right,female,3,116,常人,sqro.bmp,Ord,Other,Yes,k,k,1,510
4251,20,right,female,3,117,好人,trao.bmp,Bad,Other,No,m,m,1,326
4251,20,right,female,3,118,坏人,ciro.bmp,Good,Other,No,k,m,0,281
4251,20,right,female,3,119,好人,tras.bmp,Bad,Self,No,m,m,1,821
4251,20,right,female,3,120,常人,sqrs.bmp,Ord,Self,Yes,m,k,0,581
4251,20,right,female,4,1,常人,tras.bmp,Bad,Self,No,,m,0,0
4251,20,right,female,4,2,坏人,cirs.bmp,Good,Self,No,m,m,1,788
4251,20,right,female,4,3,好人,tras.bmp,Bad,Self,No,k,m,0,765
4251,20,right,female,4,4,常人,sqrs.bmp,Ord,Self,Yes,m,k,0,474
4251,20,right,female,4,5,常人,trao.bmp,Bad,Other,No,m,m,1,999
4251,20,right,female,4,6,好人,sqro.bmp,Ord,Other,No,k,m,0,442
4251,20,right,female,4,7,常人,sqro.bmp,Ord,Other,Yes,m,k,0,731
4251,20,right,female,4,8,坏人,sqrs.bmp,Ord,Self,No,k,m,0,903
4251,20,right,female,4,9,坏人,tras.bmp,Bad,Self,Yes,k,k,1,664
4251,20,right,female,4,10,好人,cirs.bmp,Good,Self,Yes,m,k,0,880
4251,20,right,female,4,11,好人,ciro.bmp,Good,Other,Yes,k,k,1,451
4251,20,right,female,4,12,坏人,sqro.bmp,Ord,Other,No,m,m,1,763
4251,20,right,female,4,13,好人,cirs.bmp,Good,Self,Yes,k,k,1,723
4251,20,right,female,4,14,常人,sqro.bmp,Ord,Other,Yes,k,k,1,929
4251,20,right,female,4,15,常人,sqrs.bmp,Ord,Self,Yes,k,k,1,619
4251,20,right,female,4,16,坏人,tras.bmp,Bad,Self,Yes,,k,0,0
4251,20,right,female,4,17,坏人,trao.bmp,Bad,Other,Yes,k,k,1,373
4251,20,right,female,4,18,常人,cirs.bmp,Good,Self,No,k,m,0,985
4251,20,right,female,4,19,好人,ciro.bmp,Good,Other,Yes,k,k,1,606
4251,20,right,female,4,20,坏人,ciro.bmp,Good,Other,No,,m,0,0
4251,20,right,female,4,21,好人,sqrs.bmp,Ord,Self,No,m,m,1,456
4251,20,right,female,4,22,坏人,trao.bmp,Bad,Other,Yes,k,k,1,673
4251,20,right,female,4,23,好人,trao.bmp,Bad,Other,No,k,m,0,539
4251,20,right,female,4,24,常人,ciro.bmp,Good,Other,No,m,m,1,556
4251,20,right,female,4,25,好人,cirs.bmp,Good,Self,Yes,m,k,0,517
4251,20,right,female,4,26,常人,sqrs.bmp,Ord,Self,Yes,k,k,1,1018
4251,20,right,female,4,27,坏人,tras.bmp,Bad,Self,Yes,k,k,1,872
4251,20,right,female,4,28,好人,tras.bmp,Bad,Self,No,,m,0,0
4251,20,right,female,4,29,坏人,sqro.bmp,Ord,Other,No,k,m,0,478
4251,20,right,female,4,30,坏人,ciro.bmp,Good,Other,No,,m,0,0
4251,20,right,female,4,31,好人,ciro.bmp,Good,Other,Yes,k,k,1,777
4251,20,right,female,4,32,常人,sqrs.bmp,Ord,Self,Yes,k,k,1,677
4251,20,right,female,4,33,常人,sqro.bmp,Ord,Other,Yes,,k,0,0
4251,20,right,female,4,34,好人,ciro.bmp,Good,Other,Yes,,k,0,0
4251,20,right,female,4,35,坏人,trao.bmp,Bad,Other,Yes,k,k,1,324
4251,20,right,female,4,36,常人,trao.bmp,Bad,Other,No,k,m,0,408
4251,20,right,female,4,37,好人,sqro.bmp,Ord,Other,No,k,m,0,676
4251,20,right,female,4,38,常人,cirs.bmp,Good,Self,No,m,m,1,436
4251,20,right,female,4,39,坏人,sqrs.bmp,Ord,Self,No,m,m,1,769
4251,20,right,female,4,40,常人,tras.bmp,Bad,Self,No,,m,0,0
4251,20,right,female,4,41,常人,ciro.bmp,Good,Other,No,,m,0,0
4251,20,right,female,4,42,好人,cirs.bmp,Good,Self,Yes,k,k,1,662
4251,20,right,female,4,43,常人,sqro.bmp,Ord,Other,Yes,m,k,0,661
4251,20,right,female,4,44,坏人,trao.bmp,Bad,Other,Yes,k,k,1,645
4251,20,right,female,4,45,好人,sqrs.bmp,Ord,Self,No,,m,0,0
4251,20,right,female,4,46,坏人,tras.bmp,Bad,Self,Yes,k,k,1,533
4251,20,right,female,4,47,坏人,cirs.bmp,Good,Self,No,k,m,0,583
4251,20,right,female,4,48,好人,trao.bmp,Bad,Other,No,m,m,1,504
4251,20,right,female,4,49,好人,ciro.bmp,Good,Other,Yes,m,k,0,598
4251,20,right,female,4,50,坏人,trao.bmp,Bad,Other,Yes,k,k,1,744
4251,20,right,female,4,51,坏人,sqrs.bmp,Ord,Self,No,k,m,0,822
4251,20,right,female,4,52,常人,sqrs.bmp,Ord,Self,Yes,m,k,0,723
4251,20,right,female,4,53,坏人,tras.bmp,Bad,Self,Yes,k,k,1,701
4251,20,right,female,4,54,好人,cirs.bmp,Good,Self,Yes,m,k,0,853
4251,20,right,female,4,55,好人,sqro.bmp,Ord,Other,No,k,m,0,474
4251,20,right,female,4,56,好人,trao.bmp,Bad,Other,No,k,m,0,246
4251,20,right,female,4,57,常人,tras.bmp,Bad,Self,No,m,m,1,880
4251,20,right,female,4,58,常人,sqro.bmp,Ord,Other,Yes,m,k,0,640
4251,20,right,female,4,59,常人,ciro.bmp,Good,Other,No,m,m,1,869
4251,20,right,female,4,60,好人,cirs.bmp,Good,Self,Yes,k,k,1,712
4251,20,right,female,4,61,坏人,tras.bmp,Bad,Self,Yes,k,k,1,873
4251,20,right,female,4,62,常人,cirs.bmp,Good,Self,No,,m,0,0
4251,20,right,female,4,63,好人,ciro.bmp,Good,Other,Yes,k,k,1,311
4251,20,right,female,4,64,坏人,trao.bmp,Bad,Other,Yes,k,k,1,588
4251,20,right,female,4,65,好人,sqrs.bmp,Ord,Self,No,k,m,0,779
4251,20,right,female,4,66,常人,sqro.bmp,Ord,Other,Yes,k,k,1,633
4251,20,right,female,4,67,坏人,ciro.bmp,Good,Other,No,m,m,1,405
4251,20,right,female,4,68,常人,trao.bmp,Bad,Other,No,k,m,0,522
4251,20,right,female,4,69,坏人,sqro.bmp,Ord,Other,No,m,m,1,370
4251,20,right,female,4,70,常人,sqrs.bmp,Ord,Self,Yes,m,k,0,459
4251,20,right,female,4,71,坏人,cirs.bmp,Good,Self,No,k,m,0,331
4251,20,right,female,4,72,好人,tras.bmp,Bad,Self,No,,m,0,0
4251,20,right,female,4,73,好人,cirs.bmp,Good,Self,Yes,m,k,0,420
4251,20,right,female,4,74,坏人,tras.bmp,Bad,Self,Yes,m,k,0,269
4251,20,right,female,4,75,常人,sqro.bmp,Ord,Other,Yes,k,k,1,308
4251,20,right,female,4,76,常人,sqro.bmp,Ord,Other,Yes,k,k,1,470
4251,20,right,female,4,77,坏人,trao.bmp,Bad,Other,Yes,m,k,0,714
4251,20,right,female,4,78,好人,trao.bmp,Bad,Other,No,k,m,0,330
4251,20,right,female,4,79,常人,cirs.bmp,Good,Self,No,m,m,1,257
4251,20,right,female,4,80,好人,tras.bmp,Bad,Self,No,k,m,0,173
4251,20,right,female,4,81,好人,sqrs.bmp,Ord,Self,No,m,m,1,284
4251,20,right,female,4,82,坏人,sqro.bmp,Ord,Other,No,k,m,0,540
4251,20,right,female,4,83,常人,trao.bmp,Bad,Other,No,m,m,1,1086
4251,20,right,female,4,84,好人,cirs.bmp,Good,Self,Yes,k,k,1,684
4251,20,right,female,4,85,好人,sqro.bmp,Ord,Other,No,m,m,1,740
4251,20,right,female,4,86,坏人,trao.bmp,Bad,Other,Yes,k,k,1,750
4251,20,right,female,4,87,好人,ciro.bmp,Good,Other,Yes,k,k,1,989
4251,20,right,female,4,88,常人,ciro.bmp,Good,Other,No,k,m,0,873
4251,20,right,female,4,89,好人,ciro.bmp,Good,Other,Yes,m,k,0,405
4251,20,right,female,4,90,常人,sqrs.bmp,Ord,Self,Yes,k,k,1,382
4251,20,right,female,4,91,坏人,tras.bmp,Bad,Self,Yes,k,k,1,694
4251,20,right,female,4,92,坏人,cirs.bmp,Good,Self,No,,m,0,0
4251,20,right,female,4,93,常人,tras.bmp,Bad,Self,No,k,m,0,421
4251,20,right,female,4,94,坏人,ciro.bmp,Good,Other,No,m,m,1,900
4251,20,right,female,4,95,坏人,sqrs.bmp,Ord,Self,No,k,m,0,917
4251,20,right,female,4,96,常人,sqrs.bmp,Ord,Self,Yes,m,k,0,649
4251,20,right,female,4,97,坏人,sqrs.bmp,Ord,Self,No,m,m,1,899
4251,20,right,female,4,98,常人,sqrs.bmp,Ord,Self,Yes,m,k,0,699
4251,20,right,female,4,99,坏人,ciro.bmp,Good,Other,No,k,m,0,921
4251,20,right,female,4,100,常人,sqro.bmp,Ord,Other,Yes,m,k,0,675
4251,20,right,female,4,101,坏人,tras.bmp,Bad,Self,Yes,k,k,1,782
4251,20,right,female,4,102,好人,ciro.bmp,Good,Other,Yes,k,k,1,870
4251,20,right,female,4,103,好人,cirs.bmp,Good,Self,Yes,k,k,1,563
4251,20,right,female,4,104,常人,trao.bmp,Bad,Other,No,k,m,0,713
4251,20,right,female,4,105,好人,sqro.bmp,Ord,Other,No,k,m,0,635
4251,20,right,female,4,106,常人,tras.bmp,Bad,Self,No,k,m,0,684
4251,20,right,female,4,107,好人,ciro.bmp,Good,Other,Yes,k,k,1,695
4251,20,right,female,4,108,坏人,trao.bmp,Bad,Other,Yes,k,k,1,639
4251,20,right,female,4,109,坏人,cirs.bmp,Good,Self,No,k,m,0,839
4251,20,right,female,4,110,坏人,trao.bmp,Bad,Other,Yes,,k,0,0
4251,20,right,female,4,111,好人,tras.bmp,Bad,Self,No,,m,0,0
4251,20,right,female,4,112,常人,ciro.bmp,Good,Other,No,m,m,1,243
4251,20,right,female,4,113,坏人,sqro.bmp,Ord,Other,No,m,m,1,951
4251,20,right,female,4,114,好人,trao.bmp,Bad,Other,No,m,m,1,527
4251,20,right,female,4,115,好人,cirs.bmp,Good,Self,Yes,k,k,1,716
4251,20,right,female,4,116,坏人,tras.bmp,Bad,Self,Yes,m,k,0,784
4251,20,right,female,4,117,常人,sqrs.bmp,Ord,Self,Yes,k,k,1,543
4251,20,right,female,4,118,常人,sqro.bmp,Ord,Other,Yes,k,k,1,309
4251,20,right,female,4,119,好人,sqrs.bmp,Ord,Self,No,k,m,0,404
4251,20,right,female,4,120,常人,cirs.bmp,Good,Self,No,m,m,1,321
4251,20,right,female,5,1,常人,tras.bmp,Bad,Self,No,,m,0,0
4251,20,right,female,5,2,好人,sqro.bmp,Ord,Other,No,,m,0,0
4251,20,right,female,5,3,好人,sqrs.bmp,Ord,Self,No,k,m,0,465
4251,20,right,female,5,4,好人,tras.bmp,Bad,Self,No,m,m,1,285
4251,20,right,female,5,5,好人,ciro.bmp,Good,Other,Yes,m,k,0,942
4251,20,right,female,5,6,坏人,cirs.bmp,Good,Self,No,k,m,0,324
4251,20,right,female,5,7,坏人,trao.bmp,Bad,Other,Yes,m,k,0,218
4251,20,right,female,5,8,常人,sqro.bmp,Ord,Other,Yes,k,k,1,206
4251,20,right,female,5,9,常人,trao.bmp,Bad,Other,No,,m,0,0
4251,20,right,female,5,10,常人,sqro.bmp,Ord,Other,Yes,m,k,0,251
4251,20,right,female,5,11,常人,cirs.bmp,Good,Self,No,k,m,0,379
4251,20,right,female,5,12,坏人,tras.bmp,Bad,Self,Yes,k,k,1,645
4251,20,right,female,5,13,坏人,trao.bmp,Bad,Other,Yes,k,k,1,678
4251,20,right,female,5,14,常人,ciro.bmp,Good,Other,No,k,m,0,619
4251,20,right,female,5,15,常人,sqrs.bmp,Ord,Self,Yes,m,k,0,284
4251,20,right,female,5,16,坏人,ciro.bmp,Good,Other,No,k,m,0,17
4251,20,right,female,5,17,坏人,tras.bmp,Bad,Self,Yes,k,k,1,423
4251,20,right,female,5,18,坏人,sqro.bmp,Ord,Other,No,k,m,0,646
4251,20,right,female,5,19,好人,cirs.bmp,Good,Self,Yes,k,k,1,601
4251,20,right,female,5,20,好人,ciro.bmp,Good,Other,Yes,k,k,1,385
4251,20,right,female,5,21,常人,sqrs.bmp,Ord,Self,Yes,m,k,0,718
4251,20,right,female,5,22,好人,cirs.bmp,Good,Self,Yes,k,k,1,323
4251,20,right,female,5,23,好人,trao.bmp,Bad,Other,No,m,m,1,785
4251,20,right,female,5,24,坏人,sqrs.bmp,Ord,Self,No,k,m,0,807
4251,20,right,female,5,25,常人,tras.bmp,Bad,Self,No,,m,0,0
4251,20,right,female,5,26,坏人,sqrs.bmp,Ord,Self,No,m,m,1,584
4251,20,right,female,5,27,好人,cirs.bmp,Good,Self,Yes,k,k,1,667
4251,20,right,female,5,28,好人,tras.bmp,Bad,Self,No,,m,0,0
4251,20,right,female,5,29,坏人,sqro.bmp,Ord,Other,No,m,m,1,482
4251,20,right,female,5,30,好人,trao.bmp,Bad,Other,No,m,m,1,622
4251,20,right,female,5,31,好人,sqro.bmp,Ord,Other,No,m,m,1,722
4251,20,right,female,5,32,坏人,trao.bmp,Bad,Other,Yes,k,k,1,515
4251,20,right,female,5,33,常人,sqro.bmp,Ord,Other,Yes,m,k,0,644
4251,20,right,female,5,34,常人,ciro.bmp,Good,Other,No,k,m,0,365
4251,20,right,female,5,35,好人,ciro.bmp,Good,Other,Yes,m,k,0,342
4251,20,right,female,5,36,坏人,tras.bmp,Bad,Self,Yes,k,k,1,337
4251,20,right,female,5,37,常人,sqrs.bmp,Ord,Self,Yes,m,k,0,865
4251,20,right,female,5,38,常人,trao.bmp,Bad,Other,No,k,m,0,297
4251,20,right,female,5,39,坏人,tras.bmp,Bad,Self,Yes,m,k,0,347
4251,20,right,female,5,40,好人,ciro.bmp,Good,Other,Yes,m,k,0,252
4251,20,right,female,5,41,坏人,trao.bmp,Bad,Other,Yes,m,k,0,318
4251,20,right,female,5,42,好人,cirs.bmp,Good,Self,Yes,k,k,1,90
4251,20,right,female,5,43,常人,sqro.bmp,Ord,Other,Yes,k,k,1,346
4251,20,right,female,5,44,常人,sqrs.bmp,Ord,Self,Yes,k,k,1,429
4251,20,right,female,5,45,好人,sqrs.bmp,Ord,Self,No,k,m,0,415
4251,20,right,female,5,46,常人,cirs.bmp,Good,Self,No,m,m,1,220
4251,20,right,female,5,47,坏人,cirs.bmp,Good,Self,No,m,m,1,549
4251,20,right,female,5,48,坏人,ciro.bmp,Good,Other,No,m,m,1,271
4251,20,right,female,5,49,坏人,trao.bmp,Bad,Other,Yes,k,k,1,309
4251,20,right,female,5,50,常人,trao.bmp,Bad,Other,No,k,m,0,365
4251,20,right,female,5,51,坏人,sqro.bmp,Ord,Other,No,m,m,1,254
4251,20,right,female,5,52,常人,sqrs.bmp,Ord,Self,Yes,m,k,0,543
4251,20,right,female,5,53,坏人,tras.bmp,Bad,Self,Yes,k,k,1,571
4251,20,right,female,5,54,常人,tras.bmp,Bad,Self,No,k,m,0,447
4251,20,right,female,5,55,坏人,cirs.bmp,Good,Self,No,m,m,1,230
4251,20,right,female,5,56,好人,tras.bmp,Bad,Self,No,k,m,0,269
4251,20,right,female,5,57,坏人,sqrs.bmp,Ord,Self,No,m,m,1,108
4251,20,right,female,5,58,好人,cirs.bmp,Good,Self,Yes,m,k,0,358
4251,20,right,female,5,59,坏人,trao.bmp,Bad,Other,Yes,k,k,1,564
4251,20,right,female,5,60,常人,sqrs.bmp,Ord,Self,Yes,m,k,0,714
4251,20,right,female,5,61,好人,ciro.bmp,Good,Other,Yes,k,k,1,909
4251,20,right,female,5,62,常人,cirs.bmp,Good,Self,No,k,m,0,486
4251,20,right,female,5,63,常人,ciro.bmp,Good,Other,No,m,m,1,407
4251,20,right,female,5,64,好人,sqrs.bmp,Ord,Self,No,k,m,0,212
4251,20,right,female,5,65,常人,sqro.bmp,Ord,Other,Yes,k,k,1,631
4251,20,right,female,5,66,好人,ciro.bmp,Good,Other,Yes,k,k,1,646
4251,20,right,female,5,67,常人,sqro.bmp,Ord,Other,Yes,k,k,1,863
4251,20,right,female,5,68,好人,sqro.bmp,Ord,Other,No,k,m,0,481
4251,20,right,female,5,69,好人,trao.bmp,Bad,Other,No,m,m,1,285
4251,20,right,female,5,70,坏人,tras.bmp,Bad,Self,Yes,k,k,1,301
4251,20,right,female,5,71,坏人,ciro.bmp,Good,Other,No,m,m,1,290
4251,20,right,female,5,72,好人,cirs.bmp,Good,Self,Yes,k,k,1,240
4251,20,right,female,5,73,好人,tras.bmp,Bad,Self,No,k,m,0,562
4251,20,right,female,5,74,好人,trao.bmp,Bad,Other,No,m,m,1,406
4251,20,right,female,5,75,常人,sqrs.bmp,Ord,Self,Yes,k,k,1,462
4251,20,right,female,5,76,常人,tras.bmp,Bad,Self,No,k,m,0,572
4251,20,right,female,5,77,坏人,sqro.bmp,Ord,Other,No,m,m,1,317
4251,20,right,female,5,78,好人,ciro.bmp,Good,Other,Yes,m,k,0,334
4251,20,right,female,5,79,坏人,tras.bmp,Bad,Self,Yes,k,k,1,216
4251,20,right,female,5,80,好人,sqrs.bmp,Ord,Self,No,k,m,0,389
4251,20,right,female,5,81,常人,sqro.bmp,Ord,Other,Yes,m,k,0,177
4251,20,right,female,5,82,常人,cirs.bmp,Good,Self,No,k,m,0,43
4251,20,right,female,5,83,坏人,trao.bmp,Bad,Other,Yes,k,k,1,373
4251,20,right,female,5,84,好人,cirs.bmp,Good,Self,Yes,k,k,1,429
4251,20,right,female,5,85,好人,cirs.bmp,Good,Self,Yes,k,k,1,507
4251,20,right,female,5,86,常人,sqro.bmp,Ord,Other,Yes,k,k,1,640
4251,20,right,female,5,87,好人,ciro.bmp,Good,Other,Yes,k,k,1,551
4251,20,right,female,5,88,坏人,tras.bmp,Bad,Self,Yes,k,k,1,767
4251,20,right,female,5,89,常人,sqrs.bmp,Ord,Self,Yes,k,k,1,629
4251,20,right,female,5,90,坏人,trao.bmp,Bad,Other,Yes,k,k,1,612
4251,20,right,female,5,91,常人,trao.bmp,Bad,Other,No,k,m,0,516
4251,20,right,female,5,92,坏人,cirs.bmp,Good,Self,No,m,m,1,244
4251,20,right,female,5,93,坏人,ciro.bmp,Good,Other,No,m,m,1,278
4251,20,right,female,5,94,坏人,sqrs.bmp,Ord,Self,No,m,m,1,500
4251,20,right,female,5,95,常人,ciro.bmp,Good,Other,No,m,m,1,489
4251,20,right,female,5,96,好人,sqro.bmp,Ord,Other,No,k,m,0,539
4251,20,right,female,5,97,好人,sqrs.bmp,Ord,Self,No,m,m,1,315
4251,20,right,female,5,98,坏人,tras.bmp,Bad,Self,Yes,m,k,0,142
4251,20,right,female,5,99,常人,cirs.bmp,Good,Self,No,m,m,1,432
4251,20,right,female,5,100,常人,sqrs.bmp,Ord,Self,Yes,m,k,0,576
4251,20,right,female,5,101,常人,ciro.bmp,Good,Other,No,k,m,0,315
4251,20,right,female,5,102,好人,trao.bmp,Bad,Other,No,m,m,1,309
4251,20,right,female,5,103,好人,cirs.bmp,Good,Self,Yes,k,k,1,515
4251,20,right,female,5,104,好人,ciro.bmp,Good,Other,Yes,k,k,1,447
4251,20,right,female,5,105,好人,sqro.bmp,Ord,Other,No,k,m,0,371
4251,20,right,female,5,106,常人,sqrs.bmp,Ord,Self,Yes,m,k,0,270
4251,20,right,female,5,107,常人,sqro.bmp,Ord,Other,Yes,k,k,1,164
4251,20,right,female,5,108,坏人,trao.bmp,Bad,Other,Yes,k,k,1,666
4251,20,right,female,5,109,好人,tras.bmp,Bad,Self,No,k,m,0,637
4251,20,right,female,5,110,好人,ciro.bmp,Good,Other,Yes,m,k,0,389
4251,20,right,female,5,111,坏人,trao.bmp,Bad,Other,Yes,k,k,1,106
4251,20,right,female,5,112,常人,sqro.bmp,Ord,Other,Yes,k,k,1,598
4251,20,right,female,5,113,坏人,sqro.bmp,Ord,Other,No,k,m,0,525
4251,20,right,female,5,114,常人,trao.bmp,Bad,Other,No,m,m,1,313
4251,20,right,female,5,115,坏人,sqrs.bmp,Ord,Self,No,k,m,0,537
4251,20,right,female,5,116,好人,cirs.bmp,Good,Self,Yes,m,k,0,341
4251,20,right,female,5,117,常人,tras.bmp,Bad,Self,No,k,m,0,307
4251,20,right,female,5,118,坏人,ciro.bmp,Good,Other,No,m,m,1,291
4251,20,right,female,5,119,坏人,tras.bmp,Bad,Self,Yes,k,k,1,591
4251,20,right,female,5,120,坏人,cirs.bmp,Good,Self,No,k,m,0,429
4251,20,right,female,6,1,好人,sqro.bmp,Ord,Other,No,m,m,1,1083
4251,20,right,female,6,2,常人,ciro.bmp,Good,Other,No,k,m,0,726
4251,20,right,female,6,3,坏人,cirs.bmp,Good,Self,No,m,m,1,842
4251,20,right,female,6,4,坏人,tras.bmp,Bad,Self,Yes,k,k,1,586
4251,20,right,female,6,5,坏人,trao.bmp,Bad,Other,Yes,k,k,1,425
4251,20,right,female,6,6,坏人,sqrs.bmp,Ord,Self,No,m,m,1,692
4251,20,right,female,6,7,坏人,ciro.bmp,Good,Other,No,m,m,1,698
4251,20,right,female,6,8,常人,tras.bmp,Bad,Self,No,k,m,0,641
4251,20,right,female,6,9,常人,sqrs.bmp,Ord,Self,Yes,m,k,0,569
4251,20,right,female,6,10,好人,ciro.bmp,Good,Other,Yes,k,k,1,696
4251,20,right,female,6,11,常人,trao.bmp,Bad,Other,No,m,m,1,713
4251,20,right,female,6,12,坏人,tras.bmp,Bad,Self,Yes,k,k,1,730
4251,20,right,female,6,13,好人,ciro.bmp,Good,Other,Yes,k,k,1,623
4251,20,right,female,6,14,常人,sqro.bmp,Ord,Other,Yes,k,k,1,594
4251,20,right,female,6,15,好人,sqrs.bmp,Ord,Self,No,k,m,0,721
4251,20,right,female,6,16,好人,cirs.bmp,Good,Self,Yes,k,k,1,668
4251,20,right,female,6,17,好人,trao.bmp,Bad,Other,No,k,m,0,656
4251,20,right,female,6,18,常人,sqrs.bmp,Ord,Self,Yes,k,k,1,717
4251,20,right,female,6,19,常人,sqro.bmp,Ord,Other,Yes,k,k,1,506
4251,20,right,female,6,20,坏人,sqro.bmp,Ord,Other,No,m,m,1,840
4251,20,right,female,6,21,好人,cirs.bmp,Good,Self,Yes,k,k,1,662
4251,20,right,female,6,22,常人,cirs.bmp,Good,Self,No,m,m,1,875
4251,20,right,female,6,23,好人,tras.bmp,Bad,Self,No,k,m,0,734
4251,20,right,female,6,24,坏人,trao.bmp,Bad,Other,Yes,k,k,1,1007
4251,20,right,female,6,25,常人,cirs.bmp,Good,Self,No,k,m,0,712
4251,20,right,female,6,26,好人,sqrs.bmp,Ord,Self,No,m,m,1,862
4251,20,right,female,6,27,常人,ciro.bmp,Good,Other,No,m,m,1,945
4251,20,right,female,6,28,常人,sqro.bmp,Ord,Other,Yes,k,k,1,940
4251,20,right,female,6,29,好人,sqro.bmp,Ord,Other,No,m,m,1,817
4251,20,right,female,6,30,好人,ciro.bmp,Good,Other,Yes,k,k,1,872
4251,20,right,female,6,31,坏人,cirs.bmp,Good,Self,No,m,m,1,793
4251,20,right,female,6,32,坏人,tras.bmp,Bad,Self,Yes,k,k,1,573
4251,20,right,female,6,33,坏人,trao.bmp,Bad,Other,Yes,k,k,1,567
4251,20,right,female,6,34,坏人,sqro.bmp,Ord,Other,No,m,m,1,1085
4251,20,right,female,6,35,常人,tras.bmp,Bad,Self,No,m,m,1,929
4251,20,right,female,6,36,坏人,ciro.bmp,Good,Other,No,,m,0,0
4251,20,right,female,6,37,好人,trao.bmp,Bad,Other,No,m,m,1,20
4251,20,right,female,6,38,常人,sqro.bmp,Ord,Other,Yes,k,k,1,883
4251,20,right,female,6,39,常人,sqrs.bmp,Ord,Self,Yes,k,k,1,878
4251,20,right,female,6,40,好人,tras.bmp,Bad,Self,No,m,m,1,650
4251,20,right,female,6,41,好人,ciro.bmp,Good,Other,Yes,k,k,1,628
4251,20,right,female,6,42,坏人,sqrs.bmp,Ord,Self,No,m,m,1,806
4251,20,right,female,6,43,好人,cirs.bmp,Good,Self,Yes,k,k,1,856
4251,20,right,female,6,44,好人,cirs.bmp,Good,Self,Yes,k,k,1,806
4251,20,right,female,6,45,坏人,trao.bmp,Bad,Other,Yes,k,k,1,755
4251,20,right,female,6,46,常人,trao.bmp,Bad,Other,No,m,m,1,755
4251,20,right,female,6,47,坏人,tras.bmp,Bad,Self,Yes,m,k,0,627
4251,20,right,female,6,48,常人,sqrs.bmp,Ord,Self,Yes,k,k,1,883
4251,20,right,female,6,49,好人,ciro.bmp,Good,Other,Yes,k,k,1,978
4251,20,right,female,6,50,常人,tras.bmp,Bad,Self,No,m,m,1,1022
4251,20,right,female,6,51,好人,sqrs.bmp,Ord,Self,No,m,m,1,915
4251,20,right,female,6,52,好人,cirs.bmp,Good,Self,Yes,k,k,1,665
4251,20,right,female,6,53,常人,sqro.bmp,Ord,Other,Yes,m,k,0,709
4251,20,right,female,6,54,常人,cirs.bmp,Good,Self,No,k,m,0,720
4251,20,right,female,6,55,常人,sqrs.bmp,Ord,Self,Yes,k,k,1,592
4251,20,right,female,6,56,好人,trao.bmp,Bad,Other,No,k,m,0,480
4251,20,right,female,6,57,坏人,sqro.bmp,Ord,Other,No,k,m,0,580
4251,20,right,female,6,58,坏人,ciro.bmp,Good,Other,No,m,m,1,654
4251,20,right,female,6,59,好人,tras.bmp,Bad,Self,No,m,m,1,787
4251,20,right,female,6,60,坏人,cirs.bmp,Good,Self,No,m,m,1,921
4251,20,right,female,6,61,好人,ciro.bmp,Good,Other,Yes,k,k,1,703
4251,20,right,female,6,62,常人,trao.bmp,Bad,Other,No,m,m,1,820
4251,20,right,female,6,63,坏人,tras.bmp,Bad,Self,Yes,k,k,1,787
4251,20,right,female,6,64,好人,cirs.bmp,Good,Self,Yes,m,k,0,580
4251,20,right,female,6,65,坏人,tras.bmp,Bad,Self,Yes,k,k,1,624
4251,20,right,female,6,66,坏人,sqrs.bmp,Ord,Self,No,m,m,1,802
4251,20,right,female,6,67,坏人,trao.bmp,Bad,Other,Yes,k,k,1,463
4251,20,right,female,6,68,坏人,trao.bmp,Bad,Other,Yes,k,k,1,569
4251,20,right,female,6,69,常人,sqro.bmp,Ord,Other,Yes,m,k,0,540
4251,20,right,female,6,70,常人,ciro.bmp,Good,Other,No,m,m,1,1036
4251,20,right,female,6,71,好人,sqro.bmp,Ord,Other,No,m,m,1,1031
4251,20,right,female,6,72,常人,sqrs.bmp,Ord,Self,Yes,m,k,0,679
4251,20,right,female,6,73,常人,trao.bmp,Bad,Other,No,k,m,0,611
4251,20,right,female,6,74,常人,cirs.bmp,Good,Self,No,m,m,1,695
4251,20,right,female,6,75,坏人,sqrs.bmp,Ord,Self,No,,m,0,0
4251,20,right,female,6,76,常人,tras.bmp,Bad,Self,No,m,m,1,900
4251,20,right,female,6,77,常人,sqro.bmp,Ord,Other,Yes,m,k,0,520
4251,20,right,female,6,78,好人,ciro.bmp,Good,Other,Yes,k,k,1,426
4251,20,right,female,6,79,坏人,ciro.bmp,Good,Other,No,k,m,0,404
4251,20,right,female,6,80,好人,sqrs.bmp,Ord,Self,No,m,m,1,354
4251,20,right,female,6,81,好人,ciro.bmp,Good,Other,Yes,m,k,0,666
4251,20,right,female,6,82,好人,tras.bmp,Bad,Self,No,k,m,0,832
4251,20,right,female,6,83,好人,cirs.bmp,Good,Self,Yes,k,k,1,492
4251,20,right,female,6,84,坏人,tras.bmp,Bad,Self,Yes,k,k,1,554
4251,20,right,female,6,85,常人,sqrs.bmp,Ord,Self,Yes,m,k,0,932
4251,20,right,female,6,86,坏人,trao.bmp,Bad,Other,Yes,k,k,1,644
4251,20,right,female,6,87,好人,sqro.bmp,Ord,Other,No,m,m,1,594
4251,20,right,female,6,88,坏人,tras.bmp,Bad,Self,Yes,k,k,1,810
4251,20,right,female,6,89,坏人,trao.bmp,Bad,Other,Yes,k,k,1,638
4251,20,right,female,6,90,常人,sqro.bmp,Ord,Other,Yes,k,k,1,939
4251,20,right,female,6,91,坏人,cirs.bmp,Good,Self,No,k,m,0,487
4251,20,right,female,6,92,好人,trao.bmp,Bad,Other,No,k,m,0,754
4251,20,right,female,6,93,坏人,sqro.bmp,Ord,Other,No,m,m,1,442
4251,20,right,female,6,94,好人,cirs.bmp,Good,Self,Yes,k,k,1,820
4251,20,right,female,6,95,常人,ciro.bmp,Good,Other,No,m,m,1,776
4251,20,right,female,6,96,常人,sqrs.bmp,Ord,Self,Yes,k,k,1,642
4251,20,right,female,6,97,常人,tras.bmp,Bad,Self,No,k,m,0,764
4251,20,right,female,6,98,坏人,trao.bmp,Bad,Other,Yes,,k,0,0
4251,20,right,female,6,99,常人,sqro.bmp,Ord,Other,Yes,,k,0,0
4251,20,right,female,6,100,坏人,ciro.bmp,Good,Other,No,k,m,0,307
4251,20,right,female,6,101,好人,tras.bmp,Bad,Self,No,m,m,1,236
4251,20,right,female,6,102,常人,sqrs.bmp,Ord,Self,Yes,m,k,0,542
4251,20,right,female,6,103,好人,trao.bmp,Bad,Other,No,k,m,0,626
4251,20,right,female,6,104,坏人,cirs.bmp,Good,Self,No,m,m,1,465
4251,20,right,female,6,105,常人,ciro.bmp,Good,Other,No,m,m,1,638
4251,20,right,female,6,106,坏人,trao.bmp,Bad,Other,Yes,k,k,1,627
4251,20,right,female,6,107,常人,trao.bmp,Bad,Other,No,m,m,1,782
4251,20,right,female,6,108,常人,cirs.bmp,Good,Self,No,m,m,1,894
4251,20,right,female,6,109,好人,ciro.bmp,Good,Other,Yes,k,k,1,665
4251,20,right,female,6,110,好人,sqro.bmp,Ord,Other,No,k,m,0,811
4251,20,right,female,6,111,好人,cirs.bmp,Good,Self,Yes,k,k,1,677
4251,20,right,female,6,112,坏人,sqro.bmp,Ord,Other,No,m,m,1,505
4251,20,right,female,6,113,坏人,tras.bmp,Bad,Self,Yes,k,k,1,360
4251,20,right,female,6,114,好人,sqrs.bmp,Ord,Self,No,m,m,1,756
4251,20,right,female,6,115,常人,sqro.bmp,Ord,Other,Yes,k,k,1,477
4251,20,right,female,6,116,坏人,tras.bmp,Bad,Self,Yes,k,k,1,822
4251,20,right,female,6,117,好人,ciro.bmp,Good,Other,Yes,k,k,1,612
4251,20,right,female,6,118,坏人,sqrs.bmp,Ord,Self,No,m,m,1,685
4251,20,right,female,6,119,好人,cirs.bmp,Good,Self,Yes,k,k,1,685
