Subject,Age,Handedness,Sex,BlockList.Sample,SubTrial,Label,Target,morality,Identity,YesNoResp,Target.RESP,Target.CRESP,Target.ACC,Target.RT
4213,22,right,female,,1,坏人,cirs.bmp,Bad,self,Yes,,k,0,0
4213,22,right,female,,2,坏人,tras.bmp,Ord,self,No,m,m,1,763
4213,22,right,female,,3,常人,sqrs.bmp,Good,self,No,k,m,0,531
4213,22,right,female,,4,好人,sqrs.bmp,Good,self,Yes,k,k,1,827
4213,22,right,female,,5,坏人,ciro.bmp,Bad,other,Yes,k,k,1,835
4213,22,right,female,,6,常人,trao.bmp,Ord,other,Yes,m,k,0,684
4213,22,right,female,,7,好人,tras.bmp,Ord,self,No,k,m,0,596
4213,22,right,female,,8,常人,cirs.bmp,Bad,self,No,k,m,0,690
4213,22,right,female,,9,常人,tras.bmp,Ord,self,Yes,k,k,1,866
4213,22,right,female,,10,常人,trao.bmp,Ord,other,Yes,,k,0,0
4213,22,right,female,,11,常人,tras.bmp,Ord,self,Yes,k,k,1,522
4213,22,right,female,,12,好人,trao.bmp,Ord,other,No,k,m,0,428
4213,22,right,female,,13,坏人,sqro.bmp,Good,other,No,m,m,1,820
4213,22,right,female,,14,好人,sqro.bmp,Good,other,Yes,,k,0,0
4213,22,right,female,,15,好人,sqro.bmp,Good,other,Yes,,k,0,0
4213,22,right,female,,16,好人,sqrs.bmp,Good,self,Yes,k,k,1,695
4213,22,right,female,,17,常人,sqro.bmp,Good,other,No,k,m,0,765
4213,22,right,female,,18,坏人,sqrs.bmp,Good,self,No,,m,0,0
4213,22,right,female,,19,坏人,cirs.bmp,Bad,self,Yes,,k,0,0
4213,22,right,female,,20,坏人,ciro.bmp,Bad,other,Yes,,k,0,0
4213,22,right,female,,21,好人,ciro.bmp,Bad,other,No,,m,0,0
4213,22,right,female,,22,常人,ciro.bmp,Bad,other,No,,m,0,0
4213,22,right,female,,23,坏人,trao.bmp,Ord,other,No,,m,0,0
4213,22,right,female,,24,好人,cirs.bmp,Bad,self,No,,m,0,0
4213,22,right,female,,25,好人,tras.bmp,Ord,self,No,,m,0,0
4213,22,right,female,,26,常人,sqrs.bmp,Good,self,No,k,m,0,752
4213,22,right,female,,27,常人,ciro.bmp,Bad,other,No,m,m,1,1064
4213,22,right,female,,28,常人,tras.bmp,Ord,self,Yes,k,k,1,812
4213,22,right,female,,29,坏人,sqro.bmp,Good,other,No,m,m,1,1066
4213,22,right,female,,30,常人,trao.bmp,Ord,other,Yes,k,k,1,654
4213,22,right,female,,31,常人,sqro.bmp,Good,other,No,,m,0,0
4213,22,right,female,,32,好人,sqrs.bmp,Good,self,Yes,k,k,1,906
4213,22,right,female,,33,坏人,sqrs.bmp,Good,self,No,m,m,1,682
4213,22,right,female,,34,常人,trao.bmp,Ord,other,Yes,k,k,1,714
4213,22,right,female,,35,好人,sqrs.bmp,Good,self,Yes,,k,0,0
4213,22,right,female,,36,坏人,cirs.bmp,Bad,self,Yes,k,k,1,834
4213,22,right,female,,37,好人,ciro.bmp,Bad,other,No,m,m,1,1042
4213,22,right,female,,38,坏人,cirs.bmp,Bad,self,Yes,k,k,1,635
4213,22,right,female,,39,坏人,ciro.bmp,Bad,other,Yes,k,k,1,851
4213,22,right,female,,40,常人,cirs.bmp,Bad,self,No,m,m,1,975
4213,22,right,female,,41,坏人,ciro.bmp,Bad,other,Yes,k,k,1,631
4213,22,right,female,,42,好人,sqro.bmp,Good,other,Yes,m,k,0,680
4213,22,right,female,,43,好人,trao.bmp,Ord,other,No,k,m,0,616
4213,22,right,female,,44,坏人,tras.bmp,Ord,self,No,m,m,1,1050
4213,22,right,female,,45,好人,cirs.bmp,Bad,self,No,m,m,1,998
4213,22,right,female,,46,好人,sqro.bmp,Good,other,Yes,k,k,1,890
4213,22,right,female,,47,坏人,trao.bmp,Ord,other,No,m,m,1,672
4213,22,right,female,,48,常人,tras.bmp,Ord,self,Yes,k,k,1,932
4213,22,right,female,1,1,常人,ciro.bmp,Bad,other,No,m,m,1,932
4213,22,right,female,1,2,好人,sqro.bmp,Good,other,Yes,k,k,1,684
4213,22,right,female,1,3,好人,tras.bmp,Ord,self,No,k,m,0,840
4213,22,right,female,1,4,常人,sqrs.bmp,Good,self,No,,m,0,0
4213,22,right,female,1,5,坏人,trao.bmp,Ord,other,No,m,m,1,952
4213,22,right,female,1,6,坏人,cirs.bmp,Bad,self,Yes,k,k,1,902
4213,22,right,female,1,7,坏人,sqrs.bmp,Good,self,No,m,m,1,862
4213,22,right,female,1,8,坏人,sqro.bmp,Good,other,No,m,m,1,704
4213,22,right,female,1,9,常人,tras.bmp,Ord,self,Yes,k,k,1,854
4213,22,right,female,1,10,常人,trao.bmp,Ord,other,Yes,k,k,1,891
4213,22,right,female,1,11,常人,cirs.bmp,Bad,self,No,m,m,1,1059
4213,22,right,female,1,12,坏人,cirs.bmp,Bad,self,Yes,k,k,1,699
4213,22,right,female,1,13,坏人,tras.bmp,Ord,self,No,m,m,1,747
4213,22,right,female,1,14,常人,sqro.bmp,Good,other,No,k,m,0,949
4213,22,right,female,1,15,坏人,ciro.bmp,Bad,other,Yes,k,k,1,705
4213,22,right,female,1,16,好人,trao.bmp,Ord,other,No,m,m,1,839
4213,22,right,female,1,17,好人,sqro.bmp,Good,other,Yes,k,k,1,931
4213,22,right,female,1,18,常人,trao.bmp,Ord,other,Yes,k,k,1,793
4213,22,right,female,1,19,好人,ciro.bmp,Bad,other,No,m,m,1,881
4213,22,right,female,1,20,坏人,ciro.bmp,Bad,other,Yes,,k,0,0
4213,22,right,female,1,21,好人,cirs.bmp,Bad,self,No,m,m,1,798
4213,22,right,female,1,22,好人,sqrs.bmp,Good,self,Yes,k,k,1,732
4213,22,right,female,1,23,好人,sqrs.bmp,Good,self,Yes,k,k,1,642
4213,22,right,female,1,24,常人,tras.bmp,Ord,self,Yes,k,k,1,772
4213,22,right,female,1,25,常人,sqro.bmp,Good,other,No,m,m,1,908
4213,22,right,female,1,26,常人,tras.bmp,Ord,self,Yes,k,k,1,955
4213,22,right,female,1,27,好人,tras.bmp,Ord,self,No,m,m,1,951
4213,22,right,female,1,28,好人,ciro.bmp,Bad,other,No,k,m,0,781
4213,22,right,female,1,29,常人,cirs.bmp,Bad,self,No,m,m,1,943
4213,22,right,female,1,30,好人,sqro.bmp,Good,other,Yes,k,k,1,877
4213,22,right,female,1,31,常人,sqrs.bmp,Good,self,No,m,m,1,965
4213,22,right,female,1,32,坏人,trao.bmp,Ord,other,No,,m,0,0
4213,22,right,female,1,33,好人,cirs.bmp,Bad,self,No,m,m,1,1049
4213,22,right,female,1,34,常人,trao.bmp,Ord,other,Yes,k,k,1,907
4213,22,right,female,1,35,坏人,sqro.bmp,Good,other,No,m,m,1,1039
4213,22,right,female,1,36,坏人,ciro.bmp,Bad,other,Yes,k,k,1,721
4213,22,right,female,1,37,坏人,cirs.bmp,Bad,self,Yes,k,k,1,887
4213,22,right,female,1,38,好人,sqrs.bmp,Good,self,Yes,,k,0,0
4213,22,right,female,1,39,好人,sqrs.bmp,Good,self,Yes,k,k,1,717
4213,22,right,female,1,40,常人,tras.bmp,Ord,self,Yes,k,k,1,988
4213,22,right,female,1,41,坏人,ciro.bmp,Bad,other,Yes,k,k,1,780
4213,22,right,female,1,42,坏人,tras.bmp,Ord,self,No,m,m,1,1032
4213,22,right,female,1,43,好人,sqro.bmp,Good,other,Yes,k,k,1,697
4213,22,right,female,1,44,常人,trao.bmp,Ord,other,Yes,k,k,1,835
4213,22,right,female,1,45,常人,ciro.bmp,Bad,other,No,,m,0,0
4213,22,right,female,1,46,坏人,cirs.bmp,Bad,self,Yes,k,k,1,613
4213,22,right,female,1,47,坏人,sqrs.bmp,Good,self,No,m,m,1,635
4213,22,right,female,1,48,好人,trao.bmp,Ord,other,No,k,m,0,835
4213,22,right,female,1,49,好人,tras.bmp,Ord,self,No,,m,0,0
4213,22,right,female,1,50,坏人,sqro.bmp,Good,other,No,k,m,0,885
4213,22,right,female,1,51,常人,sqro.bmp,Good,other,No,m,m,1,989
4213,22,right,female,1,52,常人,trao.bmp,Ord,other,Yes,k,k,1,1007
4213,22,right,female,1,53,常人,trao.bmp,Ord,other,Yes,m,k,0,717
4213,22,right,female,1,54,常人,ciro.bmp,Bad,other,No,,m,0,0
4213,22,right,female,1,55,好人,sqrs.bmp,Good,self,Yes,k,k,1,669
4213,22,right,female,1,56,坏人,tras.bmp,Ord,self,No,m,m,1,1031
4213,22,right,female,1,57,常人,cirs.bmp,Bad,self,No,k,m,0,669
4213,22,right,female,1,58,常人,tras.bmp,Ord,self,Yes,k,k,1,890
4213,22,right,female,1,59,坏人,ciro.bmp,Bad,other,Yes,k,k,1,807
4213,22,right,female,1,60,坏人,sqrs.bmp,Good,self,No,,m,0,0
4213,22,right,female,1,61,坏人,cirs.bmp,Bad,self,Yes,k,k,1,617
4213,22,right,female,1,62,常人,sqrs.bmp,Good,self,No,k,m,0,815
4213,22,right,female,1,63,好人,sqro.bmp,Good,other,Yes,,k,0,0
4213,22,right,female,1,64,好人,trao.bmp,Ord,other,No,m,m,1,689
4213,22,right,female,1,65,好人,sqro.bmp,Good,other,Yes,k,k,1,723
4213,22,right,female,1,66,坏人,cirs.bmp,Bad,self,Yes,k,k,1,827
4213,22,right,female,1,67,好人,sqrs.bmp,Good,self,Yes,k,k,1,731
4213,22,right,female,1,68,坏人,trao.bmp,Ord,other,No,m,m,1,765
4213,22,right,female,1,69,好人,ciro.bmp,Bad,other,No,k,m,0,563
4213,22,right,female,1,70,好人,cirs.bmp,Bad,self,No,m,m,1,743
4213,22,right,female,1,71,坏人,ciro.bmp,Bad,other,Yes,k,k,1,797
4213,22,right,female,1,72,常人,tras.bmp,Ord,self,Yes,k,k,1,821
4213,22,right,female,1,73,好人,trao.bmp,Ord,other,No,m,m,1,903
4213,22,right,female,1,74,常人,trao.bmp,Ord,other,Yes,k,k,1,1084
4213,22,right,female,1,75,常人,tras.bmp,Ord,self,Yes,m,k,0,844
4213,22,right,female,1,76,常人,sqrs.bmp,Good,self,No,,m,0,0
4213,22,right,female,1,77,常人,trao.bmp,Ord,other,Yes,k,k,1,602
4213,22,right,female,1,78,好人,ciro.bmp,Bad,other,No,,m,0,0
4213,22,right,female,1,79,坏人,ciro.bmp,Bad,other,Yes,k,k,1,1007
4213,22,right,female,1,80,好人,sqrs.bmp,Good,self,Yes,k,k,1,787
4213,22,right,female,1,81,坏人,cirs.bmp,Bad,self,Yes,k,k,1,867
4213,22,right,female,1,82,常人,tras.bmp,Ord,self,Yes,k,k,1,785
4213,22,right,female,1,83,坏人,sqrs.bmp,Good,self,No,,m,0,0
4213,22,right,female,1,84,坏人,tras.bmp,Ord,self,No,,m,0,0
4213,22,right,female,1,85,坏人,sqro.bmp,Good,other,No,m,m,1,845
4213,22,right,female,1,86,常人,cirs.bmp,Bad,self,No,,m,0,0
4213,22,right,female,1,87,坏人,ciro.bmp,Bad,other,Yes,,k,0,0
4213,22,right,female,1,88,坏人,trao.bmp,Ord,other,No,m,m,1,881
4213,22,right,female,1,89,坏人,cirs.bmp,Bad,self,Yes,m,k,0,851
4213,22,right,female,1,90,常人,ciro.bmp,Bad,other,No,m,m,1,792
4213,22,right,female,1,91,好人,tras.bmp,Ord,self,No,,m,0,0
4213,22,right,female,1,92,好人,cirs.bmp,Bad,self,No,,m,0,0
4213,22,right,female,1,93,常人,sqro.bmp,Good,other,No,m,m,1,678
4213,22,right,female,1,94,好人,sqro.bmp,Good,other,Yes,m,k,0,820
4213,22,right,female,1,95,好人,sqrs.bmp,Good,self,Yes,k,k,1,716
4213,22,right,female,1,96,好人,sqro.bmp,Good,other,Yes,k,k,1,596
4213,22,right,female,1,97,常人,trao.bmp,Ord,other,Yes,k,k,1,420
4213,22,right,female,1,98,好人,trao.bmp,Ord,other,No,m,m,1,871
4213,22,right,female,1,99,坏人,cirs.bmp,Bad,self,Yes,k,k,1,735
4213,22,right,female,1,100,好人,cirs.bmp,Bad,self,No,m,m,1,757
4213,22,right,female,1,101,坏人,sqro.bmp,Good,other,No,k,m,0,875
4213,22,right,female,1,102,坏人,ciro.bmp,Bad,other,Yes,,k,0,0
4213,22,right,female,1,103,坏人,trao.bmp,Ord,other,No,,m,0,0
4213,22,right,female,1,104,坏人,tras.bmp,Ord,self,No,k,m,0,505
4213,22,right,female,1,105,坏人,ciro.bmp,Bad,other,Yes,m,k,0,665
4213,22,right,female,1,106,常人,sqrs.bmp,Good,self,No,k,m,0,712
4213,22,right,female,1,107,常人,sqro.bmp,Good,other,No,m,m,1,762
4213,22,right,female,1,108,常人,tras.bmp,Ord,self,Yes,m,k,0,592
4213,22,right,female,1,109,常人,tras.bmp,Ord,self,Yes,k,k,1,862
4213,22,right,female,1,110,坏人,sqrs.bmp,Good,self,No,m,m,1,876
4213,22,right,female,1,111,常人,cirs.bmp,Bad,self,No,m,m,1,836
4213,22,right,female,1,112,好人,sqrs.bmp,Good,self,Yes,k,k,1,724
4213,22,right,female,1,113,好人,sqrs.bmp,Good,self,Yes,k,k,1,766
4213,22,right,female,1,114,好人,sqro.bmp,Good,other,Yes,k,k,1,586
4213,22,right,female,1,115,坏人,cirs.bmp,Bad,self,Yes,m,k,0,686
4213,22,right,female,1,116,好人,ciro.bmp,Bad,other,No,m,m,1,954
4213,22,right,female,1,117,常人,trao.bmp,Ord,other,Yes,k,k,1,752
4213,22,right,female,1,118,好人,tras.bmp,Ord,self,No,m,m,1,817
4213,22,right,female,1,119,常人,ciro.bmp,Bad,other,No,m,m,1,877
4213,22,right,female,1,120,好人,sqro.bmp,Good,other,Yes,k,k,1,679
4213,22,right,female,2,1,好人,sqrs.bmp,Good,self,Yes,k,k,1,996
4213,22,right,female,2,2,坏人,ciro.bmp,Bad,other,Yes,k,k,1,978
4213,22,right,female,2,3,坏人,sqrs.bmp,Good,self,No,k,m,0,829
4213,22,right,female,2,4,常人,sqrs.bmp,Good,self,No,m,m,1,1088
4213,22,right,female,2,5,常人,sqro.bmp,Good,other,No,m,m,1,742
4213,22,right,female,2,6,好人,sqrs.bmp,Good,self,Yes,k,k,1,1098
4213,22,right,female,2,7,常人,cirs.bmp,Bad,self,No,k,m,0,538
4213,22,right,female,2,8,坏人,cirs.bmp,Bad,self,Yes,k,k,1,724
4213,22,right,female,2,9,好人,tras.bmp,Ord,self,No,m,m,1,902
4213,22,right,female,2,10,好人,sqro.bmp,Good,other,Yes,k,k,1,674
4213,22,right,female,2,11,常人,tras.bmp,Ord,self,Yes,k,k,1,840
4213,22,right,female,2,12,好人,trao.bmp,Ord,other,No,m,m,1,956
4213,22,right,female,2,13,坏人,tras.bmp,Ord,self,No,m,m,1,742
4213,22,right,female,2,14,常人,trao.bmp,Ord,other,Yes,k,k,1,730
4213,22,right,female,2,15,好人,cirs.bmp,Bad,self,No,m,m,1,1086
4213,22,right,female,2,16,坏人,cirs.bmp,Bad,self,Yes,m,k,0,694
4213,22,right,female,2,17,常人,tras.bmp,Ord,self,Yes,k,k,1,786
4213,22,right,female,2,18,好人,ciro.bmp,Bad,other,No,k,m,0,656
4213,22,right,female,2,19,坏人,trao.bmp,Ord,other,No,k,m,0,809
4213,22,right,female,2,20,常人,trao.bmp,Ord,other,Yes,,k,0,0
4213,22,right,female,2,21,坏人,ciro.bmp,Bad,other,Yes,k,k,1,766
4213,22,right,female,2,22,常人,ciro.bmp,Bad,other,No,m,m,1,882
4213,22,right,female,2,23,坏人,sqro.bmp,Good,other,No,m,m,1,1054
4213,22,right,female,2,24,好人,sqro.bmp,Good,other,Yes,,k,0,0
4213,22,right,female,2,25,常人,sqrs.bmp,Good,self,No,m,m,1,836
4213,22,right,female,2,26,好人,sqro.bmp,Good,other,Yes,m,k,0,1016
4213,22,right,female,2,27,常人,trao.bmp,Ord,other,Yes,k,k,1,720
4213,22,right,female,2,28,坏人,sqrs.bmp,Good,self,No,,m,0,0
4213,22,right,female,2,29,常人,sqro.bmp,Good,other,No,,m,0,0
4213,22,right,female,2,30,好人,trao.bmp,Ord,other,No,k,m,0,744
4213,22,right,female,2,31,坏人,trao.bmp,Ord,other,No,m,m,1,780
4213,22,right,female,2,32,好人,ciro.bmp,Bad,other,No,m,m,1,1018
4213,22,right,female,2,33,好人,tras.bmp,Ord,self,No,m,m,1,878
4213,22,right,female,2,34,好人,sqrs.bmp,Good,self,Yes,k,k,1,912
4213,22,right,female,2,35,常人,tras.bmp,Ord,self,Yes,k,k,1,847
4213,22,right,female,2,36,坏人,ciro.bmp,Bad,other,Yes,k,k,1,809
4213,22,right,female,2,37,常人,trao.bmp,Ord,other,Yes,k,k,1,789
4213,22,right,female,2,38,好人,cirs.bmp,Bad,self,No,m,m,1,899
4213,22,right,female,2,39,坏人,ciro.bmp,Bad,other,Yes,k,k,1,1035
4213,22,right,female,2,40,坏人,sqro.bmp,Good,other,No,m,m,1,727
4213,22,right,female,2,41,坏人,cirs.bmp,Bad,self,Yes,k,k,1,554
4213,22,right,female,2,42,常人,tras.bmp,Ord,self,Yes,k,k,1,730
4213,22,right,female,2,43,常人,ciro.bmp,Bad,other,No,k,m,0,536
4213,22,right,female,2,44,坏人,cirs.bmp,Bad,self,Yes,k,k,1,1006
4213,22,right,female,2,45,常人,cirs.bmp,Bad,self,No,m,m,1,988
4213,22,right,female,2,46,好人,sqrs.bmp,Good,self,Yes,k,k,1,694
4213,22,right,female,2,47,好人,sqro.bmp,Good,other,Yes,k,k,1,642
4213,22,right,female,2,48,坏人,tras.bmp,Ord,self,No,m,m,1,730
4213,22,right,female,2,49,坏人,sqro.bmp,Good,other,No,,m,0,0
4213,22,right,female,2,50,好人,ciro.bmp,Bad,other,No,,m,0,0
4213,22,right,female,2,51,坏人,trao.bmp,Ord,other,No,m,m,1,767
4213,22,right,female,2,52,好人,sqrs.bmp,Good,self,Yes,k,k,1,727
4213,22,right,female,2,53,好人,sqro.bmp,Good,other,Yes,m,k,0,951
4213,22,right,female,2,54,常人,trao.bmp,Ord,other,Yes,k,k,1,713
4213,22,right,female,2,55,好人,cirs.bmp,Bad,self,No,m,m,1,781
4213,22,right,female,2,56,常人,trao.bmp,Ord,other,Yes,k,k,1,575
4213,22,right,female,2,57,常人,cirs.bmp,Bad,self,No,m,m,1,703
4213,22,right,female,2,58,坏人,tras.bmp,Ord,self,No,,m,0,0
4213,22,right,female,2,59,坏人,cirs.bmp,Bad,self,Yes,k,k,1,537
4213,22,right,female,2,60,好人,sqrs.bmp,Good,self,Yes,k,k,1,592
4213,22,right,female,2,61,坏人,ciro.bmp,Bad,other,Yes,m,k,0,716
4213,22,right,female,2,62,常人,ciro.bmp,Bad,other,No,m,m,1,956
4213,22,right,female,2,63,坏人,ciro.bmp,Bad,other,Yes,k,k,1,556
4213,22,right,female,2,64,常人,tras.bmp,Ord,self,Yes,k,k,1,748
4213,22,right,female,2,65,好人,sqro.bmp,Good,other,Yes,m,k,0,858
4213,22,right,female,2,66,常人,tras.bmp,Ord,self,Yes,k,k,1,526
4213,22,right,female,2,67,常人,sqro.bmp,Good,other,No,k,m,0,479
4213,22,right,female,2,68,坏人,cirs.bmp,Bad,self,Yes,k,k,1,671
4213,22,right,female,2,69,坏人,sqrs.bmp,Good,self,No,m,m,1,1099
4213,22,right,female,2,70,常人,sqrs.bmp,Good,self,No,k,m,0,831
4213,22,right,female,2,71,好人,trao.bmp,Ord,other,No,,m,0,0
4213,22,right,female,2,72,好人,tras.bmp,Ord,self,No,m,m,1,603
4213,22,right,female,2,73,坏人,ciro.bmp,Bad,other,Yes,k,k,1,733
4213,22,right,female,2,74,常人,ciro.bmp,Bad,other,No,m,m,1,677
4213,22,right,female,2,75,常人,cirs.bmp,Bad,self,No,m,m,1,899
4213,22,right,female,2,76,常人,trao.bmp,Ord,other,Yes,m,k,0,1007
4213,22,right,female,2,77,坏人,trao.bmp,Ord,other,No,m,m,1,803
4213,22,right,female,2,78,坏人,cirs.bmp,Bad,self,Yes,k,k,1,681
4213,22,right,female,2,79,常人,sqro.bmp,Good,other,No,m,m,1,736
4213,22,right,female,2,80,坏人,sqrs.bmp,Good,self,No,m,m,1,1054
4213,22,right,female,2,81,好人,sqrs.bmp,Good,self,Yes,,k,0,0
4213,22,right,female,2,82,好人,cirs.bmp,Bad,self,No,k,m,0,599
4213,22,right,female,2,83,常人,sqrs.bmp,Good,self,No,m,m,1,785
4213,22,right,female,2,84,好人,sqrs.bmp,Good,self,Yes,k,k,1,871
4213,22,right,female,2,85,坏人,cirs.bmp,Bad,self,Yes,k,k,1,1043
4213,22,right,female,2,86,好人,ciro.bmp,Bad,other,No,m,m,1,1009
4213,22,right,female,2,87,好人,sqro.bmp,Good,other,Yes,,k,0,0
4213,22,right,female,2,88,常人,tras.bmp,Ord,self,Yes,,k,0,0
4213,22,right,female,2,89,好人,tras.bmp,Ord,self,No,m,m,1,713
4213,22,right,female,2,90,坏人,ciro.bmp,Bad,other,Yes,k,k,1,839
4213,22,right,female,2,91,好人,sqro.bmp,Good,other,Yes,m,k,0,575
4213,22,right,female,2,92,常人,tras.bmp,Ord,self,Yes,k,k,1,771
4213,22,right,female,2,93,常人,trao.bmp,Ord,other,Yes,k,k,1,531
4213,22,right,female,2,94,好人,trao.bmp,Ord,other,No,m,m,1,795
4213,22,right,female,2,95,坏人,tras.bmp,Ord,self,No,m,m,1,717
4213,22,right,female,2,96,坏人,sqro.bmp,Good,other,No,,m,0,0
4213,22,right,female,2,97,好人,tras.bmp,Ord,self,No,,m,0,0
4213,22,right,female,2,98,坏人,cirs.bmp,Bad,self,Yes,k,k,1,700
4213,22,right,female,2,99,坏人,ciro.bmp,Bad,other,Yes,m,k,0,805
4213,22,right,female,2,100,好人,trao.bmp,Ord,other,No,m,m,1,1097
4213,22,right,female,2,101,好人,ciro.bmp,Bad,other,No,k,m,0,629
4213,22,right,female,2,102,常人,sqrs.bmp,Good,self,No,m,m,1,693
4213,22,right,female,2,103,坏人,sqrs.bmp,Good,self,No,,m,0,0
4213,22,right,female,2,104,坏人,ciro.bmp,Bad,other,Yes,k,k,1,1033
4213,22,right,female,2,105,好人,sqrs.bmp,Good,self,Yes,m,k,0,649
4213,22,right,female,2,106,常人,tras.bmp,Ord,self,Yes,k,k,1,847
4213,22,right,female,2,107,好人,sqrs.bmp,Good,self,Yes,k,k,1,1011
4213,22,right,female,2,108,常人,tras.bmp,Ord,self,Yes,k,k,1,885
4213,22,right,female,2,109,常人,sqro.bmp,Good,other,No,m,m,1,867
4213,22,right,female,2,110,常人,trao.bmp,Ord,other,Yes,k,k,1,929
4213,22,right,female,2,111,坏人,sqro.bmp,Good,other,No,m,m,1,743
4213,22,right,female,2,112,常人,cirs.bmp,Bad,self,No,k,m,0,485
4213,22,right,female,2,113,坏人,trao.bmp,Ord,other,No,m,m,1,791
4213,22,right,female,2,114,坏人,cirs.bmp,Bad,self,Yes,k,k,1,660
4213,22,right,female,2,115,好人,sqro.bmp,Good,other,Yes,k,k,1,764
4213,22,right,female,2,116,好人,sqro.bmp,Good,other,Yes,k,k,1,604
4213,22,right,female,2,117,坏人,tras.bmp,Ord,self,No,m,m,1,774
4213,22,right,female,2,118,常人,trao.bmp,Ord,other,Yes,,k,0,0
4213,22,right,female,2,119,常人,ciro.bmp,Bad,other,No,m,m,1,935
4213,22,right,female,2,120,好人,cirs.bmp,Bad,self,No,m,m,1,1095
4213,22,right,female,3,1,常人,sqrs.bmp,Good,self,No,,m,0,0
4213,22,right,female,3,2,常人,tras.bmp,Ord,self,Yes,k,k,1,826
4213,22,right,female,3,3,坏人,tras.bmp,Ord,self,No,m,m,1,884
4213,22,right,female,3,4,常人,ciro.bmp,Bad,other,No,m,m,1,860
4213,22,right,female,3,5,常人,trao.bmp,Ord,other,Yes,m,k,0,622
4213,22,right,female,3,6,坏人,ciro.bmp,Bad,other,Yes,k,k,1,878
4213,22,right,female,3,7,常人,tras.bmp,Ord,self,Yes,m,k,0,1008
4213,22,right,female,3,8,常人,cirs.bmp,Bad,self,No,,m,0,0
4213,22,right,female,3,9,坏人,ciro.bmp,Bad,other,Yes,k,k,1,943
4213,22,right,female,3,10,好人,trao.bmp,Ord,other,No,,m,0,0
4213,22,right,female,3,11,坏人,sqro.bmp,Good,other,No,,m,0,0
4213,22,right,female,3,12,坏人,sqrs.bmp,Good,self,No,m,m,1,779
4213,22,right,female,3,13,好人,sqro.bmp,Good,other,Yes,m,k,0,781
4213,22,right,female,3,14,好人,sqrs.bmp,Good,self,Yes,k,k,1,903
4213,22,right,female,3,15,好人,cirs.bmp,Bad,self,No,k,m,0,792
4213,22,right,female,3,16,坏人,cirs.bmp,Bad,self,Yes,m,k,0,848
4213,22,right,female,3,17,常人,trao.bmp,Ord,other,Yes,k,k,1,842
4213,22,right,female,3,18,好人,ciro.bmp,Bad,other,No,m,m,1,908
4213,22,right,female,3,19,好人,tras.bmp,Ord,self,No,m,m,1,1094
4213,22,right,female,3,20,好人,sqro.bmp,Good,other,Yes,k,k,1,782
4213,22,right,female,3,21,坏人,trao.bmp,Ord,other,No,m,m,1,718
4213,22,right,female,3,22,常人,sqro.bmp,Good,other,No,,m,0,0
4213,22,right,female,3,23,好人,sqrs.bmp,Good,self,Yes,k,k,1,702
4213,22,right,female,3,24,坏人,cirs.bmp,Bad,self,Yes,k,k,1,984
4213,22,right,female,3,25,坏人,cirs.bmp,Bad,self,Yes,k,k,1,734
4213,22,right,female,3,26,好人,sqrs.bmp,Good,self,Yes,k,k,1,782
4213,22,right,female,3,27,好人,tras.bmp,Ord,self,No,m,m,1,727
4213,22,right,female,3,28,好人,sqrs.bmp,Good,self,Yes,k,k,1,759
4213,22,right,female,3,29,好人,trao.bmp,Ord,other,No,m,m,1,873
4213,22,right,female,3,30,常人,sqro.bmp,Good,other,No,,m,0,0
4213,22,right,female,3,31,坏人,tras.bmp,Ord,self,No,k,m,0,938
4213,22,right,female,3,32,坏人,ciro.bmp,Bad,other,Yes,k,k,1,666
4213,22,right,female,3,33,常人,sqrs.bmp,Good,self,No,m,m,1,654
4213,22,right,female,3,34,好人,cirs.bmp,Bad,self,No,k,m,0,618
4213,22,right,female,3,35,坏人,cirs.bmp,Bad,self,Yes,m,k,0,866
4213,22,right,female,3,36,坏人,sqro.bmp,Good,other,No,,m,0,0
4213,22,right,female,3,37,坏人,sqrs.bmp,Good,self,No,,m,0,0
4213,22,right,female,3,38,常人,tras.bmp,Ord,self,Yes,k,k,1,470
4213,22,right,female,3,39,好人,sqro.bmp,Good,other,Yes,m,k,0,786
4213,22,right,female,3,40,好人,sqro.bmp,Good,other,Yes,k,k,1,510
4213,22,right,female,3,41,坏人,ciro.bmp,Bad,other,Yes,m,k,0,608
4213,22,right,female,3,42,常人,cirs.bmp,Bad,self,No,k,m,0,800
4213,22,right,female,3,43,好人,ciro.bmp,Bad,other,No,k,m,0,598
4213,22,right,female,3,44,常人,tras.bmp,Ord,self,Yes,m,k,0,1002
4213,22,right,female,3,45,常人,trao.bmp,Ord,other,Yes,m,k,0,790
4213,22,right,female,3,46,常人,ciro.bmp,Bad,other,No,k,m,0,693
4213,22,right,female,3,47,坏人,trao.bmp,Ord,other,No,,m,0,0
4213,22,right,female,3,48,常人,trao.bmp,Ord,other,Yes,m,k,0,612
4213,22,right,female,3,49,坏人,tras.bmp,Ord,self,No,k,m,0,718
4213,22,right,female,3,50,好人,tras.bmp,Ord,self,No,m,m,1,984
4213,22,right,female,3,51,常人,trao.bmp,Ord,other,Yes,m,k,0,864
4213,22,right,female,3,52,坏人,sqrs.bmp,Good,self,No,k,m,0,608
4213,22,right,female,3,53,常人,tras.bmp,Ord,self,Yes,m,k,0,800
4213,22,right,female,3,54,好人,sqro.bmp,Good,other,Yes,k,k,1,1086
4213,22,right,female,3,55,坏人,trao.bmp,Ord,other,No,m,m,1,830
4213,22,right,female,3,56,坏人,ciro.bmp,Bad,other,Yes,k,k,1,654
4213,22,right,female,3,57,好人,trao.bmp,Ord,other,No,m,m,1,920
4213,22,right,female,3,58,常人,sqrs.bmp,Good,self,No,k,m,0,752
4213,22,right,female,3,59,常人,cirs.bmp,Bad,self,No,m,m,1,716
4213,22,right,female,3,60,好人,sqrs.bmp,Good,self,Yes,k,k,1,870
4213,22,right,female,3,61,好人,cirs.bmp,Bad,self,No,m,m,1,1036
4213,22,right,female,3,62,坏人,sqro.bmp,Good,other,No,m,m,1,801
4213,22,right,female,3,63,常人,trao.bmp,Ord,other,Yes,k,k,1,967
4213,22,right,female,3,64,好人,ciro.bmp,Bad,other,No,k,m,0,881
4213,22,right,female,3,65,坏人,cirs.bmp,Bad,self,Yes,m,k,0,794
4213,22,right,female,3,66,好人,sqrs.bmp,Good,self,Yes,,k,0,0
4213,22,right,female,3,67,常人,ciro.bmp,Bad,other,No,m,m,1,938
4213,22,right,female,3,68,好人,sqro.bmp,Good,other,Yes,k,k,1,626
4213,22,right,female,3,69,坏人,ciro.bmp,Bad,other,Yes,k,k,1,702
4213,22,right,female,3,70,坏人,cirs.bmp,Bad,self,Yes,k,k,1,1040
4213,22,right,female,3,71,常人,tras.bmp,Ord,self,Yes,k,k,1,744
4213,22,right,female,3,72,常人,sqro.bmp,Good,other,No,,m,0,0
4213,22,right,female,3,73,常人,ciro.bmp,Bad,other,No,k,m,0,836
4213,22,right,female,3,74,好人,sqrs.bmp,Good,self,Yes,k,k,1,872
4213,22,right,female,3,75,坏人,sqro.bmp,Good,other,No,m,m,1,726
4213,22,right,female,3,76,常人,tras.bmp,Ord,self,Yes,k,k,1,804
4213,22,right,female,3,77,好人,sqro.bmp,Good,other,Yes,k,k,1,1010
4213,22,right,female,3,78,坏人,tras.bmp,Ord,self,No,m,m,1,790
4213,22,right,female,3,79,好人,sqrs.bmp,Good,self,Yes,k,k,1,719
4213,22,right,female,3,80,坏人,trao.bmp,Ord,other,No,,m,0,0
4213,22,right,female,3,81,好人,tras.bmp,Ord,self,No,,m,0,0
4213,22,right,female,3,82,常人,trao.bmp,Ord,other,Yes,k,k,1,957
4213,22,right,female,3,83,坏人,cirs.bmp,Bad,self,Yes,m,k,0,679
4213,22,right,female,3,84,好人,trao.bmp,Ord,other,No,m,m,1,886
4213,22,right,female,3,85,坏人,ciro.bmp,Bad,other,Yes,k,k,1,718
4213,22,right,female,3,86,好人,sqro.bmp,Good,other,Yes,k,k,1,924
4213,22,right,female,3,87,常人,sqrs.bmp,Good,self,No,m,m,1,720
4213,22,right,female,3,88,好人,cirs.bmp,Bad,self,No,k,m,0,648
4213,22,right,female,3,89,坏人,ciro.bmp,Bad,other,Yes,k,k,1,830
4213,22,right,female,3,90,坏人,cirs.bmp,Bad,self,Yes,k,k,1,724
4213,22,right,female,3,91,常人,cirs.bmp,Bad,self,No,m,m,1,712
4213,22,right,female,3,92,常人,trao.bmp,Ord,other,Yes,k,k,1,804
4213,22,right,female,3,93,常人,tras.bmp,Ord,self,Yes,k,k,1,892
4213,22,right,female,3,94,常人,sqro.bmp,Good,other,No,m,m,1,789
4213,22,right,female,3,95,坏人,sqrs.bmp,Good,self,No,k,m,0,873
4213,22,right,female,3,96,好人,ciro.bmp,Bad,other,No,m,m,1,951
4213,22,right,female,3,97,坏人,sqro.bmp,Good,other,No,m,m,1,893
4213,22,right,female,3,98,坏人,cirs.bmp,Bad,self,Yes,k,k,1,681
4213,22,right,female,3,99,常人,sqrs.bmp,Good,self,No,m,m,1,807
4213,22,right,female,3,100,坏人,ciro.bmp,Bad,other,Yes,k,k,1,815
4213,22,right,female,3,101,常人,trao.bmp,Ord,other,Yes,k,k,1,927
4213,22,right,female,3,102,常人,sqro.bmp,Good,other,No,,m,0,0
4213,22,right,female,3,103,好人,sqro.bmp,Good,other,Yes,k,k,1,752
4213,22,right,female,3,104,好人,sqro.bmp,Good,other,Yes,m,k,0,640
4213,22,right,female,3,105,常人,tras.bmp,Ord,self,Yes,k,k,1,1054
4213,22,right,female,3,106,坏人,cirs.bmp,Bad,self,Yes,k,k,1,658
4213,22,right,female,3,107,好人,sqrs.bmp,Good,self,Yes,m,k,0,936
4213,22,right,female,3,108,坏人,tras.bmp,Ord,self,No,,m,0,0
4213,22,right,female,3,109,坏人,sqrs.bmp,Good,self,No,k,m,0,548
4213,22,right,female,3,110,好人,sqrs.bmp,Good,self,Yes,k,k,1,661
4213,22,right,female,3,111,好人,tras.bmp,Ord,self,No,m,m,1,853
4213,22,right,female,3,112,好人,cirs.bmp,Bad,self,No,k,m,0,529
4213,22,right,female,3,113,常人,cirs.bmp,Bad,self,No,m,m,1,993
4213,22,right,female,3,114,常人,ciro.bmp,Bad,other,No,,m,0,0
4213,22,right,female,3,115,坏人,ciro.bmp,Bad,other,Yes,,k,0,0
4213,22,right,female,3,116,常人,trao.bmp,Ord,other,Yes,k,k,1,653
4213,22,right,female,3,117,常人,tras.bmp,Ord,self,Yes,k,k,1,531
4213,22,right,female,3,118,坏人,trao.bmp,Ord,other,No,k,m,0,663
4213,22,right,female,3,119,好人,trao.bmp,Ord,other,No,m,m,1,611
4213,22,right,female,3,120,好人,ciro.bmp,Bad,other,No,m,m,1,991
4213,22,right,female,4,1,坏人,tras.bmp,Ord,self,No,m,m,1,851
4213,22,right,female,4,2,常人,tras.bmp,Ord,self,Yes,m,k,0,793
4213,22,right,female,4,3,坏人,ciro.bmp,Bad,other,Yes,k,k,1,661
4213,22,right,female,4,4,坏人,trao.bmp,Ord,other,No,m,m,1,645
4213,22,right,female,4,5,好人,sqro.bmp,Good,other,Yes,k,k,1,635
4213,22,right,female,4,6,好人,sqrs.bmp,Good,self,Yes,k,k,1,709
4213,22,right,female,4,7,好人,sqrs.bmp,Good,self,Yes,k,k,1,623
4213,22,right,female,4,8,坏人,ciro.bmp,Bad,other,Yes,m,k,0,567
4213,22,right,female,4,9,好人,tras.bmp,Ord,self,No,m,m,1,891
4213,22,right,female,4,10,好人,cirs.bmp,Bad,self,No,m,m,1,877
4213,22,right,female,4,11,常人,sqro.bmp,Good,other,No,m,m,1,1097
4213,22,right,female,4,12,好人,trao.bmp,Ord,other,No,k,m,0,564
4213,22,right,female,4,13,常人,ciro.bmp,Bad,other,No,m,m,1,888
4213,22,right,female,4,14,常人,tras.bmp,Ord,self,Yes,k,k,1,738
4213,22,right,female,4,15,好人,ciro.bmp,Bad,other,No,m,m,1,832
4213,22,right,female,4,16,坏人,cirs.bmp,Bad,self,Yes,k,k,1,937
4213,22,right,female,4,17,坏人,sqro.bmp,Good,other,No,m,m,1,1089
4213,22,right,female,4,18,坏人,cirs.bmp,Bad,self,Yes,m,k,0,741
4213,22,right,female,4,19,常人,cirs.bmp,Bad,self,No,,m,0,0
4213,22,right,female,4,20,常人,trao.bmp,Ord,other,Yes,k,k,1,885
4213,22,right,female,4,21,常人,trao.bmp,Ord,other,Yes,k,k,1,725
4213,22,right,female,4,22,常人,sqrs.bmp,Good,self,No,m,m,1,947
4213,22,right,female,4,23,坏人,sqrs.bmp,Good,self,No,,m,0,0
4213,22,right,female,4,24,好人,sqro.bmp,Good,other,Yes,k,k,1,669
4213,22,right,female,4,25,好人,sqrs.bmp,Good,self,Yes,k,k,1,643
4213,22,right,female,4,26,坏人,trao.bmp,Ord,other,No,m,m,1,639
4213,22,right,female,4,27,坏人,cirs.bmp,Bad,self,Yes,k,k,1,868
4213,22,right,female,4,28,好人,trao.bmp,Ord,other,No,k,m,0,932
4213,22,right,female,4,29,好人,sqro.bmp,Good,other,Yes,k,k,1,880
4213,22,right,female,4,30,好人,sqro.bmp,Good,other,Yes,k,k,1,598
4213,22,right,female,4,31,坏人,sqrs.bmp,Good,self,No,m,m,1,662
4213,22,right,female,4,32,常人,ciro.bmp,Bad,other,No,m,m,1,956
4213,22,right,female,4,33,坏人,ciro.bmp,Bad,other,Yes,k,k,1,704
4213,22,right,female,4,34,坏人,sqro.bmp,Good,other,No,m,m,1,854
4213,22,right,female,4,35,好人,cirs.bmp,Bad,self,No,m,m,1,919
4213,22,right,female,4,36,好人,ciro.bmp,Bad,other,No,m,m,1,635
4213,22,right,female,4,37,常人,trao.bmp,Ord,other,Yes,m,k,0,1039
4213,22,right,female,4,38,好人,sqrs.bmp,Good,self,Yes,k,k,1,655
4213,22,right,female,4,39,常人,trao.bmp,Ord,other,Yes,k,k,1,1049
4213,22,right,female,4,40,常人,cirs.bmp,Bad,self,No,m,m,1,847
4213,22,right,female,4,41,坏人,tras.bmp,Ord,self,No,k,m,0,887
4213,22,right,female,4,42,常人,sqro.bmp,Good,other,No,,m,0,0
4213,22,right,female,4,43,坏人,ciro.bmp,Bad,other,Yes,k,k,1,806
4213,22,right,female,4,44,常人,sqrs.bmp,Good,self,No,m,m,1,678
4213,22,right,female,4,45,常人,tras.bmp,Ord,self,Yes,k,k,1,508
4213,22,right,female,4,46,常人,tras.bmp,Ord,self,Yes,k,k,1,834
4213,22,right,female,4,47,坏人,cirs.bmp,Bad,self,Yes,,k,0,0
4213,22,right,female,4,48,好人,tras.bmp,Ord,self,No,k,m,0,758
4213,22,right,female,4,49,常人,trao.bmp,Ord,other,Yes,k,k,1,896
4213,22,right,female,4,50,坏人,sqrs.bmp,Good,self,No,m,m,1,874
4213,22,right,female,4,51,好人,trao.bmp,Ord,other,No,k,m,0,918
4213,22,right,female,4,52,常人,sqrs.bmp,Good,self,No,,m,0,0
4213,22,right,female,4,53,好人,sqrs.bmp,Good,self,Yes,,k,0,0
4213,22,right,female,4,54,坏人,tras.bmp,Ord,self,No,m,m,1,859
4213,22,right,female,4,55,常人,sqro.bmp,Good,other,No,,m,0,0
4213,22,right,female,4,56,好人,cirs.bmp,Bad,self,No,k,m,0,573
4213,22,right,female,4,57,好人,ciro.bmp,Bad,other,No,m,m,1,647
4213,22,right,female,4,58,常人,tras.bmp,Ord,self,Yes,m,k,0,711
4213,22,right,female,4,59,常人,cirs.bmp,Bad,self,No,m,m,1,824
4213,22,right,female,4,60,坏人,sqro.bmp,Good,other,No,m,m,1,1076
4213,22,right,female,4,61,坏人,cirs.bmp,Bad,self,Yes,k,k,1,952
4213,22,right,female,4,62,坏人,ciro.bmp,Bad,other,Yes,m,k,0,594
4213,22,right,female,4,63,好人,tras.bmp,Ord,self,No,k,m,0,990
4213,22,right,female,4,64,好人,sqro.bmp,Good,other,Yes,,k,0,0
4213,22,right,female,4,65,常人,tras.bmp,Ord,self,Yes,,k,0,0
4213,22,right,female,4,66,好人,sqro.bmp,Good,other,Yes,,k,0,0
4213,22,right,female,4,67,坏人,cirs.bmp,Bad,self,Yes,k,k,1,254
4213,22,right,female,4,68,坏人,trao.bmp,Ord,other,No,m,m,1,944
4213,22,right,female,4,69,坏人,ciro.bmp,Bad,other,Yes,k,k,1,814
4213,22,right,female,4,70,常人,ciro.bmp,Bad,other,No,m,m,1,824
4213,22,right,female,4,71,好人,sqrs.bmp,Good,self,Yes,k,k,1,634
4213,22,right,female,4,72,常人,trao.bmp,Ord,other,Yes,k,k,1,760
4213,22,right,female,4,73,坏人,trao.bmp,Ord,other,No,m,m,1,882
4213,22,right,female,4,74,常人,sqro.bmp,Good,other,No,k,m,0,651
4213,22,right,female,4,75,好人,sqro.bmp,Good,other,Yes,m,k,0,798
4213,22,right,female,4,76,常人,ciro.bmp,Bad,other,No,,m,0,0
4213,22,right,female,4,77,好人,tras.bmp,Ord,self,No,,m,0,0
4213,22,right,female,4,78,坏人,tras.bmp,Ord,self,No,,m,0,0
4213,22,right,female,4,79,好人,cirs.bmp,Bad,self,No,,m,0,0
4213,22,right,female,4,80,坏人,ciro.bmp,Bad,other,Yes,,k,0,0
4213,22,right,female,4,81,坏人,cirs.bmp,Bad,self,Yes,k,k,1,910
4213,22,right,female,4,82,常人,cirs.bmp,Bad,self,No,m,m,1,724
4213,22,right,female,4,83,好人,sqro.bmp,Good,other,Yes,k,k,1,602
4213,22,right,female,4,84,好人,sqrs.bmp,Good,self,Yes,k,k,1,520
4213,22,right,female,4,85,好人,ciro.bmp,Bad,other,No,k,m,0,836
4213,22,right,female,4,86,坏人,ciro.bmp,Bad,other,Yes,m,k,0,650
4213,22,right,female,4,87,好人,sqrs.bmp,Good,self,Yes,k,k,1,696
4213,22,right,female,4,88,坏人,sqro.bmp,Good,other,No,m,m,1,976
4213,22,right,female,4,89,坏人,cirs.bmp,Bad,self,Yes,,k,0,0
4213,22,right,female,4,90,常人,tras.bmp,Ord,self,Yes,k,k,1,624
4213,22,right,female,4,91,常人,tras.bmp,Ord,self,Yes,k,k,1,577
4213,22,right,female,4,92,好人,trao.bmp,Ord,other,No,m,m,1,815
4213,22,right,female,4,93,常人,trao.bmp,Ord,other,Yes,k,k,1,808
4213,22,right,female,4,94,常人,sqrs.bmp,Good,self,No,m,m,1,908
4213,22,right,female,4,95,常人,trao.bmp,Ord,other,Yes,m,k,0,776
4213,22,right,female,4,96,坏人,sqrs.bmp,Good,self,No,k,m,0,834
4213,22,right,female,4,97,常人,tras.bmp,Ord,self,Yes,k,k,1,916
4213,22,right,female,4,98,常人,cirs.bmp,Bad,self,No,k,m,0,944
4213,22,right,female,4,99,坏人,ciro.bmp,Bad,other,Yes,k,k,1,708
4213,22,right,female,4,100,好人,tras.bmp,Ord,self,No,k,m,0,876
4213,22,right,female,4,101,坏人,cirs.bmp,Bad,self,Yes,k,k,1,566
4213,22,right,female,4,102,坏人,tras.bmp,Ord,self,No,m,m,1,698
4213,22,right,female,4,103,好人,sqro.bmp,Good,other,Yes,k,k,1,754
4213,22,right,female,4,104,坏人,cirs.bmp,Bad,self,Yes,k,k,1,672
4213,22,right,female,4,105,常人,ciro.bmp,Bad,other,No,m,m,1,762
4213,22,right,female,4,106,坏人,sqrs.bmp,Good,self,No,k,m,0,774
4213,22,right,female,4,107,常人,trao.bmp,Ord,other,Yes,k,k,1,949
4213,22,right,female,4,108,常人,sqrs.bmp,Good,self,No,m,m,1,959
4213,22,right,female,4,109,好人,cirs.bmp,Bad,self,No,k,m,0,605
4213,22,right,female,4,110,好人,sqro.bmp,Good,other,Yes,k,k,1,701
4213,22,right,female,4,111,好人,sqrs.bmp,Good,self,Yes,k,k,1,689
4213,22,right,female,4,112,坏人,trao.bmp,Ord,other,No,m,m,1,749
4213,22,right,female,4,113,好人,sqrs.bmp,Good,self,Yes,k,k,1,638
4213,22,right,female,4,114,常人,sqro.bmp,Good,other,No,m,m,1,922
4213,22,right,female,4,115,好人,trao.bmp,Ord,other,No,m,m,1,884
4213,22,right,female,4,116,常人,tras.bmp,Ord,self,Yes,k,k,1,1022
4213,22,right,female,4,117,坏人,ciro.bmp,Bad,other,Yes,k,k,1,838
4213,22,right,female,4,118,坏人,sqro.bmp,Good,other,No,m,m,1,836
4213,22,right,female,4,119,好人,ciro.bmp,Bad,other,No,k,m,0,540
4213,22,right,female,4,120,常人,trao.bmp,Ord,other,Yes,k,k,1,668
4213,22,right,female,5,1,好人,sqro.bmp,Good,other,Yes,k,k,1,1050
4213,22,right,female,5,2,常人,trao.bmp,Ord,other,Yes,k,k,1,888
4213,22,right,female,5,3,好人,sqrs.bmp,Good,self,Yes,k,k,1,736
4213,22,right,female,5,4,常人,sqrs.bmp,Good,self,No,k,m,0,630
4213,22,right,female,5,5,常人,cirs.bmp,Bad,self,No,m,m,1,958
4213,22,right,female,5,6,坏人,cirs.bmp,Bad,self,Yes,k,k,1,752
4213,22,right,female,5,7,坏人,sqrs.bmp,Good,self,No,m,m,1,999
4213,22,right,female,5,8,坏人,ciro.bmp,Bad,other,Yes,k,k,1,511
4213,22,right,female,5,9,好人,ciro.bmp,Bad,other,No,m,m,1,797
4213,22,right,female,5,10,常人,tras.bmp,Ord,self,Yes,k,k,1,725
4213,22,right,female,5,11,好人,sqro.bmp,Good,other,Yes,m,k,0,843
4213,22,right,female,5,12,坏人,ciro.bmp,Bad,other,Yes,k,k,1,789
4213,22,right,female,5,13,坏人,tras.bmp,Ord,self,No,m,m,1,979
4213,22,right,female,5,14,好人,tras.bmp,Ord,self,No,m,m,1,789
4213,22,right,female,5,15,常人,ciro.bmp,Bad,other,No,m,m,1,827
4213,22,right,female,5,16,常人,tras.bmp,Ord,self,Yes,k,k,1,861
4213,22,right,female,5,17,坏人,trao.bmp,Ord,other,No,m,m,1,887
4213,22,right,female,5,18,好人,trao.bmp,Ord,other,No,m,m,1,865
4213,22,right,female,5,19,好人,sqrs.bmp,Good,self,Yes,k,k,1,671
4213,22,right,female,5,20,坏人,cirs.bmp,Bad,self,Yes,k,k,1,672
4213,22,right,female,5,21,好人,cirs.bmp,Bad,self,No,k,m,0,710
4213,22,right,female,5,22,常人,sqro.bmp,Good,other,No,m,m,1,757
4213,22,right,female,5,23,坏人,sqro.bmp,Good,other,No,m,m,1,997
4213,22,right,female,5,24,常人,trao.bmp,Ord,other,Yes,k,k,1,851
4213,22,right,female,5,25,常人,ciro.bmp,Bad,other,No,m,m,1,871
4213,22,right,female,5,26,好人,sqrs.bmp,Good,self,Yes,k,k,1,713
4213,22,right,female,5,27,好人,ciro.bmp,Bad,other,No,k,m,0,1025
4213,22,right,female,5,28,常人,trao.bmp,Ord,other,Yes,k,k,1,901
4213,22,right,female,5,29,常人,cirs.bmp,Bad,self,No,m,m,1,757
4213,22,right,female,5,30,常人,tras.bmp,Ord,self,Yes,k,k,1,655
4213,22,right,female,5,31,好人,sqrs.bmp,Good,self,Yes,m,k,0,775
4213,22,right,female,5,32,常人,tras.bmp,Ord,self,Yes,k,k,1,721
4213,22,right,female,5,33,常人,sqro.bmp,Good,other,No,m,m,1,953
4213,22,right,female,5,34,坏人,sqrs.bmp,Good,self,No,k,m,0,733
4213,22,right,female,5,35,坏人,sqro.bmp,Good,other,No,m,m,1,913
4213,22,right,female,5,36,好人,sqro.bmp,Good,other,Yes,k,k,1,815
4213,22,right,female,5,37,坏人,cirs.bmp,Bad,self,Yes,m,k,0,595
4213,22,right,female,5,38,好人,sqro.bmp,Good,other,Yes,k,k,1,523
4213,22,right,female,5,39,好人,trao.bmp,Ord,other,No,m,m,1,813
4213,22,right,female,5,40,好人,cirs.bmp,Bad,self,No,k,m,0,655
4213,22,right,female,5,41,坏人,trao.bmp,Ord,other,No,m,m,1,1027
4213,22,right,female,5,42,常人,sqrs.bmp,Good,self,No,m,m,1,1079
4213,22,right,female,5,43,坏人,ciro.bmp,Bad,other,Yes,k,k,1,695
4213,22,right,female,5,44,常人,trao.bmp,Ord,other,Yes,m,k,0,745
4213,22,right,female,5,45,坏人,tras.bmp,Ord,self,No,m,m,1,783
4213,22,right,female,5,46,好人,tras.bmp,Ord,self,No,m,m,1,967
4213,22,right,female,5,47,坏人,cirs.bmp,Bad,self,Yes,k,k,1,491
4213,22,right,female,5,48,坏人,ciro.bmp,Bad,other,Yes,k,k,1,765
4213,22,right,female,5,49,常人,ciro.bmp,Bad,other,No,m,m,1,727
4213,22,right,female,5,50,坏人,cirs.bmp,Bad,self,Yes,k,k,1,649
4213,22,right,female,5,51,好人,trao.bmp,Ord,other,No,m,m,1,861
4213,22,right,female,5,52,常人,tras.bmp,Ord,self,Yes,k,k,1,769
4213,22,right,female,5,53,坏人,cirs.bmp,Bad,self,Yes,m,k,0,820
4213,22,right,female,5,54,坏人,tras.bmp,Ord,self,No,m,m,1,860
4213,22,right,female,5,55,好人,tras.bmp,Ord,self,No,k,m,0,1032
4213,22,right,female,5,56,好人,sqrs.bmp,Good,self,Yes,,k,0,0
4213,22,right,female,5,57,坏人,sqro.bmp,Good,other,No,m,m,1,747
4213,22,right,female,5,58,常人,sqrs.bmp,Good,self,No,k,m,0,805
4213,22,right,female,5,59,好人,sqro.bmp,Good,other,Yes,m,k,0,737
4213,22,right,female,5,60,坏人,trao.bmp,Ord,other,No,,m,0,0
4213,22,right,female,5,61,常人,trao.bmp,Ord,other,Yes,m,k,0,571
4213,22,right,female,5,62,好人,sqro.bmp,Good,other,Yes,k,k,1,729
4213,22,right,female,5,63,好人,sqrs.bmp,Good,self,Yes,k,k,1,647
4213,22,right,female,5,64,坏人,sqrs.bmp,Good,self,No,m,m,1,941
4213,22,right,female,5,65,好人,ciro.bmp,Bad,other,No,k,m,0,799
4213,22,right,female,5,66,常人,sqro.bmp,Good,other,No,m,m,1,747
4213,22,right,female,5,67,常人,tras.bmp,Ord,self,Yes,m,k,0,627
4213,22,right,female,5,68,坏人,ciro.bmp,Bad,other,Yes,k,k,1,727
4213,22,right,female,5,69,常人,cirs.bmp,Bad,self,No,k,m,0,532
4213,22,right,female,5,70,好人,cirs.bmp,Bad,self,No,k,m,0,486
4213,22,right,female,5,71,常人,trao.bmp,Ord,other,Yes,k,k,1,736
4213,22,right,female,5,72,坏人,ciro.bmp,Bad,other,Yes,m,k,0,858
4213,22,right,female,5,73,坏人,sqrs.bmp,Good,self,No,,m,0,0
4213,22,right,female,5,74,好人,sqrs.bmp,Good,self,Yes,k,k,1,844
4213,22,right,female,5,75,坏人,trao.bmp,Ord,other,No,m,m,1,1054
4213,22,right,female,5,76,坏人,ciro.bmp,Bad,other,Yes,k,k,1,607
4213,22,right,female,5,77,好人,sqrs.bmp,Good,self,Yes,k,k,1,735
4213,22,right,female,5,78,常人,ciro.bmp,Bad,other,No,m,m,1,761
4213,22,right,female,5,79,坏人,ciro.bmp,Bad,other,Yes,m,k,0,923
4213,22,right,female,5,80,常人,trao.bmp,Ord,other,Yes,k,k,1,813
4213,22,right,female,5,81,好人,sqro.bmp,Good,other,Yes,k,k,1,705
4213,22,right,female,5,82,坏人,cirs.bmp,Bad,self,Yes,k,k,1,451
4213,22,right,female,5,83,好人,trao.bmp,Ord,other,No,m,m,1,885
4213,22,right,female,5,84,坏人,sqro.bmp,Good,other,No,m,m,1,753
4213,22,right,female,5,85,好人,cirs.bmp,Bad,self,No,k,m,0,468
4213,22,right,female,5,86,好人,tras.bmp,Ord,self,No,m,m,1,844
4213,22,right,female,5,87,常人,cirs.bmp,Bad,self,No,m,m,1,774
4213,22,right,female,5,88,坏人,tras.bmp,Ord,self,No,k,m,0,864
4213,22,right,female,5,89,好人,sqro.bmp,Good,other,Yes,,k,0,0
4213,22,right,female,5,90,好人,ciro.bmp,Bad,other,No,m,m,1,858
4213,22,right,female,5,91,坏人,cirs.bmp,Bad,self,Yes,m,k,0,556
4213,22,right,female,5,92,常人,sqrs.bmp,Good,self,No,m,m,1,846
4213,22,right,female,5,93,常人,tras.bmp,Ord,self,Yes,k,k,1,798
4213,22,right,female,5,94,常人,tras.bmp,Ord,self,Yes,k,k,1,612
4213,22,right,female,5,95,常人,sqro.bmp,Good,other,No,m,m,1,678
4213,22,right,female,5,96,常人,trao.bmp,Ord,other,Yes,m,k,0,739
4213,22,right,female,5,97,坏人,ciro.bmp,Bad,other,Yes,k,k,1,697
4213,22,right,female,5,98,常人,trao.bmp,Ord,other,Yes,m,k,0,739
4213,22,right,female,5,99,常人,sqro.bmp,Good,other,No,,m,0,0
4213,22,right,female,5,100,常人,tras.bmp,Ord,self,Yes,k,k,1,997
4213,22,right,female,5,101,坏人,trao.bmp,Ord,other,No,m,m,1,680
4213,22,right,female,5,102,好人,tras.bmp,Ord,self,No,m,m,1,988
4213,22,right,female,5,103,好人,sqrs.bmp,Good,self,Yes,k,k,1,786
4213,22,right,female,5,104,坏人,sqrs.bmp,Good,self,No,k,m,0,552
4213,22,right,female,5,105,好人,ciro.bmp,Bad,other,No,m,m,1,956
4213,22,right,female,5,106,常人,sqrs.bmp,Good,self,No,m,m,1,946
4213,22,right,female,5,107,坏人,cirs.bmp,Bad,self,Yes,k,k,1,626
4213,22,right,female,5,108,坏人,cirs.bmp,Bad,self,Yes,k,k,1,992
4213,22,right,female,5,109,常人,trao.bmp,Ord,other,Yes,m,k,0,566
4213,22,right,female,5,110,坏人,sqro.bmp,Good,other,No,,m,0,0
4213,22,right,female,5,111,好人,trao.bmp,Ord,other,No,m,m,1,662
4213,22,right,female,5,112,常人,ciro.bmp,Bad,other,No,m,m,1,848
4213,22,right,female,5,113,坏人,tras.bmp,Ord,self,No,k,m,0,654
4213,22,right,female,5,114,常人,tras.bmp,Ord,self,Yes,m,k,0,966
4213,22,right,female,5,115,常人,cirs.bmp,Bad,self,No,,m,0,0
4213,22,right,female,5,116,好人,sqro.bmp,Good,other,Yes,,k,0,0
4213,22,right,female,5,117,坏人,ciro.bmp,Bad,other,Yes,m,k,0,610
4213,22,right,female,5,118,好人,sqrs.bmp,Good,self,Yes,k,k,1,818
4213,22,right,female,5,119,好人,cirs.bmp,Bad,self,No,m,m,1,932
4213,22,right,female,5,120,好人,sqro.bmp,Good,other,Yes,k,k,1,868
4213,22,right,female,6,1,常人,tras.bmp,Ord,self,Yes,m,k,0,930
4213,22,right,female,6,2,常人,ciro.bmp,Bad,other,No,,m,0,0
4213,22,right,female,6,3,坏人,sqro.bmp,Good,other,No,k,m,0,1055
4213,22,right,female,6,4,好人,sqrs.bmp,Good,self,Yes,k,k,1,847
4213,22,right,female,6,5,常人,trao.bmp,Ord,other,Yes,k,k,1,910
4213,22,right,female,6,6,好人,trao.bmp,Ord,other,No,k,m,0,774
4213,22,right,female,6,7,坏人,cirs.bmp,Bad,self,Yes,k,k,1,710
4213,22,right,female,6,8,常人,sqro.bmp,Good,other,No,m,m,1,842
4213,22,right,female,6,9,好人,sqro.bmp,Good,other,Yes,k,k,1,942
4213,22,right,female,6,10,常人,trao.bmp,Ord,other,Yes,k,k,1,720
4213,22,right,female,6,11,坏人,cirs.bmp,Bad,self,Yes,k,k,1,778
4213,22,right,female,6,12,好人,sqro.bmp,Good,other,Yes,k,k,1,736
4213,22,right,female,6,13,坏人,ciro.bmp,Bad,other,Yes,k,k,1,816
4213,22,right,female,6,14,常人,tras.bmp,Ord,self,Yes,k,k,1,704
4213,22,right,female,6,15,坏人,trao.bmp,Ord,other,No,k,m,0,666
4213,22,right,female,6,16,常人,cirs.bmp,Bad,self,No,m,m,1,934
4213,22,right,female,6,17,好人,tras.bmp,Ord,self,No,m,m,1,928
4213,22,right,female,6,18,好人,sqrs.bmp,Good,self,Yes,k,k,1,703
4213,22,right,female,6,19,坏人,sqrs.bmp,Good,self,No,m,m,1,775
4213,22,right,female,6,20,坏人,tras.bmp,Ord,self,No,m,m,1,887
4213,22,right,female,6,21,好人,cirs.bmp,Bad,self,No,k,m,0,743
4213,22,right,female,6,22,好人,ciro.bmp,Bad,other,No,,m,0,0
4213,22,right,female,6,23,常人,sqrs.bmp,Good,self,No,k,m,0,757
4213,22,right,female,6,24,坏人,ciro.bmp,Bad,other,Yes,k,k,1,970
4213,22,right,female,6,25,坏人,tras.bmp,Ord,self,No,m,m,1,790
4213,22,right,female,6,26,常人,tras.bmp,Ord,self,Yes,,k,0,0
4213,22,right,female,6,27,好人,sqro.bmp,Good,other,Yes,k,k,1,690
4213,22,right,female,6,28,坏人,sqrs.bmp,Good,self,No,m,m,1,758
4213,22,right,female,6,29,常人,trao.bmp,Ord,other,Yes,k,k,1,650
4213,22,right,female,6,30,常人,ciro.bmp,Bad,other,No,m,m,1,782
4213,22,right,female,6,31,好人,sqrs.bmp,Good,self,Yes,k,k,1,648
4213,22,right,female,6,32,常人,sqrs.bmp,Good,self,No,k,m,0,680
4213,22,right,female,6,33,坏人,ciro.bmp,Bad,other,Yes,m,k,0,676
4213,22,right,female,6,34,常人,cirs.bmp,Bad,self,No,m,m,1,845
4213,22,right,female,6,35,好人,tras.bmp,Ord,self,No,k,m,0,825
4213,22,right,female,6,36,好人,trao.bmp,Ord,other,No,m,m,1,635
4213,22,right,female,6,37,好人,ciro.bmp,Bad,other,No,m,m,1,945
4213,22,right,female,6,38,坏人,sqro.bmp,Good,other,No,m,m,1,921
4213,22,right,female,6,39,常人,trao.bmp,Ord,other,Yes,k,k,1,669
4213,22,right,female,6,40,常人,tras.bmp,Ord,self,Yes,k,k,1,1099
4213,22,right,female,6,41,坏人,cirs.bmp,Bad,self,Yes,k,k,1,853
4213,22,right,female,6,42,常人,sqro.bmp,Good,other,No,m,m,1,923
4213,22,right,female,6,43,好人,sqro.bmp,Good,other,Yes,k,k,1,554
4213,22,right,female,6,44,坏人,cirs.bmp,Bad,self,Yes,k,k,1,468
4213,22,right,female,6,45,坏人,ciro.bmp,Bad,other,Yes,k,k,1,1082
4213,22,right,female,6,46,好人,sqrs.bmp,Good,self,Yes,m,k,0,1072
4213,22,right,female,6,47,坏人,trao.bmp,Ord,other,No,m,m,1,976
4213,22,right,female,6,48,好人,cirs.bmp,Bad,self,No,k,m,0,490
4213,22,right,female,6,49,常人,cirs.bmp,Bad,self,No,m,m,1,824
4213,22,right,female,6,50,常人,sqrs.bmp,Good,self,No,m,m,1,937
4213,22,right,female,6,51,坏人,sqrs.bmp,Good,self,No,m,m,1,787
4213,22,right,female,6,52,坏人,ciro.bmp,Bad,other,Yes,k,k,1,881
4213,22,right,female,6,53,好人,trao.bmp,Ord,other,No,m,m,1,811
4213,22,right,female,6,54,好人,sqrs.bmp,Good,self,Yes,k,k,1,809
4213,22,right,female,6,55,常人,tras.bmp,Ord,self,Yes,k,k,1,773
4213,22,right,female,6,56,好人,sqro.bmp,Good,other,Yes,k,k,1,773
4213,22,right,female,6,57,常人,ciro.bmp,Bad,other,No,m,m,1,835
4213,22,right,female,6,58,坏人,tras.bmp,Ord,self,No,m,m,1,993
4213,22,right,female,6,59,常人,trao.bmp,Ord,other,Yes,k,k,1,791
4213,22,right,female,6,60,好人,cirs.bmp,Bad,self,No,k,m,0,717
4213,22,right,female,6,61,常人,trao.bmp,Ord,other,Yes,m,k,0,747
4213,22,right,female,6,62,坏人,cirs.bmp,Bad,self,Yes,k,k,1,830
4213,22,right,female,6,63,好人,sqro.bmp,Good,other,Yes,k,k,1,618
4213,22,right,female,6,64,常人,sqro.bmp,Good,other,No,k,m,0,610
4213,22,right,female,6,65,好人,sqrs.bmp,Good,self,Yes,k,k,1,1072
4213,22,right,female,6,66,好人,ciro.bmp,Bad,other,No,m,m,1,1031
4213,22,right,female,6,67,坏人,trao.bmp,Ord,other,No,,m,0,0
4213,22,right,female,6,68,坏人,cirs.bmp,Bad,self,Yes,k,k,1,885
4213,22,right,female,6,69,常人,tras.bmp,Ord,self,Yes,m,k,0,787
4213,22,right,female,6,70,好人,tras.bmp,Ord,self,No,k,m,0,579
4213,22,right,female,6,71,坏人,sqro.bmp,Good,other,No,,m,0,0
4213,22,right,female,6,72,坏人,ciro.bmp,Bad,other,Yes,k,k,1,727
4213,22,right,female,6,73,坏人,ciro.bmp,Bad,other,Yes,k,k,1,759
4213,22,right,female,6,74,常人,sqro.bmp,Good,other,No,m,m,1,985
4213,22,right,female,6,75,坏人,cirs.bmp,Bad,self,Yes,k,k,1,655
4213,22,right,female,6,76,常人,trao.bmp,Ord,other,Yes,,k,0,0
4213,22,right,female,6,77,坏人,sqrs.bmp,Good,self,No,,m,0,0
4213,22,right,female,6,78,常人,ciro.bmp,Bad,other,No,k,m,0,649
4213,22,right,female,6,79,坏人,tras.bmp,Ord,self,No,m,m,1,597
4213,22,right,female,6,80,常人,trao.bmp,Ord,other,Yes,k,k,1,831
4213,22,right,female,6,81,常人,tras.bmp,Ord,self,Yes,k,k,1,977
4213,22,right,female,6,82,坏人,ciro.bmp,Bad,other,Yes,,k,0,0
4213,22,right,female,6,83,常人,cirs.bmp,Bad,self,No,m,m,1,1041
4213,22,right,female,6,84,好人,cirs.bmp,Bad,self,No,k,m,0,609
4213,22,right,female,6,85,好人,tras.bmp,Ord,self,No,m,m,1,815
4213,22,right,female,6,86,好人,sqrs.bmp,Good,self,Yes,k,k,1,747
4213,22,right,female,6,87,好人,sqro.bmp,Good,other,Yes,k,k,1,1041
4213,22,right,female,6,88,好人,trao.bmp,Ord,other,No,m,m,1,949
4213,22,right,female,6,89,好人,ciro.bmp,Bad,other,No,k,m,0,701
4213,22,right,female,6,90,坏人,cirs.bmp,Bad,self,Yes,m,k,0,851
4213,22,right,female,6,91,坏人,sqro.bmp,Good,other,No,,m,0,0
4213,22,right,female,6,92,好人,sqro.bmp,Good,other,Yes,k,k,1,845
4213,22,right,female,6,93,常人,sqrs.bmp,Good,self,No,m,m,1,743
4213,22,right,female,6,94,好人,sqrs.bmp,Good,self,Yes,k,k,1,541
4213,22,right,female,6,95,常人,tras.bmp,Ord,self,Yes,k,k,1,829
4213,22,right,female,6,96,坏人,trao.bmp,Ord,other,No,m,m,1,889
4213,22,right,female,6,97,常人,tras.bmp,Ord,self,Yes,m,k,0,1048
4213,22,right,female,6,98,常人,sqro.bmp,Good,other,No,k,m,0,652
4213,22,right,female,6,99,好人,trao.bmp,Ord,other,No,m,m,1,994
4213,22,right,female,6,100,坏人,cirs.bmp,Bad,self,Yes,k,k,1,848
4213,22,right,female,6,101,好人,sqrs.bmp,Good,self,Yes,k,k,1,701
4213,22,right,female,6,102,坏人,ciro.bmp,Bad,other,Yes,m,k,0,697
4213,22,right,female,6,103,常人,tras.bmp,Ord,self,Yes,k,k,1,899
4213,22,right,female,6,104,常人,trao.bmp,Ord,other,Yes,k,k,1,587
4213,22,right,female,6,105,好人,cirs.bmp,Bad,self,No,k,m,0,635
4213,22,right,female,6,106,好人,sqro.bmp,Good,other,Yes,k,k,1,765
4213,22,right,female,6,107,常人,cirs.bmp,Bad,self,No,m,m,1,785
4213,22,right,female,6,108,好人,ciro.bmp,Bad,other,No,m,m,1,653
4213,22,right,female,6,109,坏人,sqro.bmp,Good,other,No,m,m,1,913
4213,22,right,female,6,110,好人,sqrs.bmp,Good,self,Yes,k,k,1,813
4213,22,right,female,6,111,坏人,cirs.bmp,Bad,self,Yes,k,k,1,973
4213,22,right,female,6,112,坏人,trao.bmp,Ord,other,No,m,m,1,751
4213,22,right,female,6,113,常人,trao.bmp,Ord,other,Yes,k,k,1,900
4213,22,right,female,6,114,常人,ciro.bmp,Bad,other,No,m,m,1,918
4213,22,right,female,6,115,常人,sqrs.bmp,Good,self,No,k,m,0,736
4213,22,right,female,6,116,坏人,ciro.bmp,Bad,other,Yes,k,k,1,786
4213,22,right,female,6,117,好人,tras.bmp,Ord,self,No,m,m,1,1046
4213,22,right,female,6,118,坏人,sqrs.bmp,Good,self,No,k,m,0,584
4213,22,right,female,6,119,坏人,tras.bmp,Ord,self,No,m,m,1,712
4213,22,right,female,6,120,好人,sqro.bmp,Good,other,Yes,k,k,1,587
4214,19,right,male,,1,好人,trao.bmp,Good,other,Yes,,m,0,0
4214,19,right,male,,2,好人,ciro.bmp,Ord,other,No,,k,0,0
4214,19,right,male,,3,坏人,trao.bmp,Good,other,No,,k,0,0
4214,19,right,male,,4,好人,sqro.bmp,Bad,other,No,,k,0,0
4214,19,right,male,,5,坏人,sqro.bmp,Bad,other,Yes,,m,0,0
4214,19,right,male,,6,好人,cirs.bmp,Ord,self,No,,k,0,0
4214,19,right,male,,7,常人,sqro.bmp,Bad,other,No,,k,0,0
4214,19,right,male,,8,常人,cirs.bmp,Ord,self,Yes,,m,0,0
4214,19,right,male,,9,坏人,tras.bmp,Good,self,No,,k,0,0
4214,19,right,male,,10,常人,trao.bmp,Good,other,No,,k,0,0
4214,19,right,male,,11,好人,tras.bmp,Good,self,Yes,,m,0,0
4214,19,right,male,,12,坏人,sqrs.bmp,Bad,self,Yes,,m,0,0
4214,19,right,male,,13,常人,tras.bmp,Good,self,No,,k,0,0
4214,19,right,male,,14,坏人,cirs.bmp,Ord,self,No,,k,0,0
4214,19,right,male,,15,常人,ciro.bmp,Ord,other,Yes,,m,0,0
4214,19,right,male,,16,坏人,ciro.bmp,Ord,other,No,,k,0,0
4214,19,right,male,,17,常人,sqrs.bmp,Bad,self,No,,k,0,0
4214,19,right,male,,18,好人,sqrs.bmp,Bad,self,No,,k,0,0
4214,19,right,male,,19,坏人,sqrs.bmp,Bad,self,Yes,,m,0,0
4214,19,right,male,,20,常人,ciro.bmp,Ord,other,Yes,,m,0,0
4214,19,right,male,,21,好人,trao.bmp,Good,other,Yes,,m,0,0
4214,19,right,male,,22,好人,tras.bmp,Good,self,Yes,m,m,1,268
4214,19,right,male,,23,坏人,sqro.bmp,Bad,other,Yes,,m,0,0
4214,19,right,male,,24,常人,cirs.bmp,Ord,self,Yes,k,m,0,314
4214,19,right,male,,25,好人,tras.bmp,Good,self,Yes,m,m,1,350
4214,19,right,male,,26,好人,tras.bmp,Good,self,Yes,m,m,1,426
4214,19,right,male,,27,好人,ciro.bmp,Ord,other,No,k,k,1,412
4214,19,right,male,,28,常人,sqro.bmp,Bad,other,No,m,k,0,282
4214,19,right,male,,29,好人,sqro.bmp,Bad,other,No,k,k,1,316
4214,19,right,male,,30,好人,cirs.bmp,Ord,self,No,k,k,1,316
4214,19,right,male,,31,好人,trao.bmp,Good,other,Yes,k,m,0,254
4214,19,right,male,,32,常人,ciro.bmp,Ord,other,Yes,m,m,1,274
4214,19,right,male,,33,常人,cirs.bmp,Ord,self,Yes,m,m,1,277
4214,19,right,male,,34,坏人,trao.bmp,Good,other,No,m,k,0,265
4214,19,right,male,,35,常人,tras.bmp,Good,self,No,k,k,1,205
4214,19,right,male,,36,坏人,sqrs.bmp,Bad,self,Yes,k,m,0,219
4214,19,right,male,,37,坏人,sqrs.bmp,Bad,self,Yes,m,m,1,259
4214,19,right,male,,38,坏人,cirs.bmp,Ord,self,No,m,k,0,271
4214,19,right,male,,39,常人,ciro.bmp,Ord,other,Yes,,m,0,0
4214,19,right,male,,40,坏人,sqro.bmp,Bad,other,Yes,m,m,1,392
4214,19,right,male,,41,坏人,tras.bmp,Good,self,No,m,k,0,230
4214,19,right,male,,42,坏人,ciro.bmp,Ord,other,No,k,k,1,292
4214,19,right,male,,43,好人,trao.bmp,Good,other,Yes,k,m,0,216
4214,19,right,male,,44,坏人,sqro.bmp,Bad,other,Yes,k,m,0,208
4214,19,right,male,,45,常人,sqrs.bmp,Bad,self,No,m,k,0,288
4214,19,right,male,,46,常人,trao.bmp,Good,other,No,m,k,0,44
4214,19,right,male,,47,好人,sqrs.bmp,Bad,self,No,k,k,1,273
4214,19,right,male,,48,常人,cirs.bmp,Ord,self,Yes,k,m,0,362
4214,19,right,male,,49,坏人,sqro.bmp,Bad,other,Yes,m,m,1,347
4214,19,right,male,,50,好人,trao.bmp,Good,other,Yes,m,m,1,279
4214,19,right,male,,51,好人,tras.bmp,Good,self,Yes,m,m,1,239
4214,19,right,male,,52,坏人,sqrs.bmp,Bad,self,Yes,m,m,1,285
4214,19,right,male,,53,常人,cirs.bmp,Ord,self,Yes,m,m,1,267
4214,19,right,male,,54,常人,ciro.bmp,Ord,other,Yes,m,m,1,308
4214,19,right,male,,55,好人,sqrs.bmp,Bad,self,No,m,k,0,270
4214,19,right,male,,56,坏人,cirs.bmp,Ord,self,No,k,k,1,278
4214,19,right,male,,57,常人,tras.bmp,Good,self,No,k,k,1,300
4214,19,right,male,,58,好人,cirs.bmp,Ord,self,No,k,k,1,293
4214,19,right,male,,59,好人,tras.bmp,Good,self,Yes,k,m,0,233
4214,19,right,male,,60,常人,cirs.bmp,Ord,self,Yes,m,m,1,209
4214,19,right,male,,61,坏人,trao.bmp,Good,other,No,m,k,0,251
4214,19,right,male,,62,好人,trao.bmp,Good,other,Yes,k,m,0,325
4214,19,right,male,,63,坏人,sqro.bmp,Bad,other,Yes,m,m,1,233
4214,19,right,male,,64,好人,sqro.bmp,Bad,other,No,m,k,0,284
4214,19,right,male,,65,常人,ciro.bmp,Ord,other,Yes,m,m,1,262
4214,19,right,male,,66,好人,ciro.bmp,Ord,other,No,m,k,0,304
4214,19,right,male,,67,坏人,tras.bmp,Good,self,No,k,k,1,172
4214,19,right,male,,68,坏人,sqrs.bmp,Bad,self,Yes,m,m,1,448
4214,19,right,male,,69,坏人,ciro.bmp,Ord,other,No,m,k,0,424
4214,19,right,male,,70,常人,trao.bmp,Good,other,No,k,k,1,398
4214,19,right,male,,71,常人,sqrs.bmp,Bad,self,No,k,k,1,288
4214,19,right,male,,72,常人,sqro.bmp,Bad,other,No,k,k,1,273
4214,19,right,male,1,1,好人,sqro.bmp,Bad,other,No,m,k,0,300
4214,19,right,male,1,2,常人,sqrs.bmp,Bad,self,No,k,k,1,282
4214,19,right,male,1,3,坏人,trao.bmp,Good,other,No,k,k,1,238
4214,19,right,male,1,4,常人,ciro.bmp,Ord,other,Yes,k,m,0,294
4214,19,right,male,1,5,常人,sqro.bmp,Bad,other,No,m,k,0,278
4214,19,right,male,1,6,坏人,sqrs.bmp,Bad,self,Yes,m,m,1,196
4214,19,right,male,1,7,坏人,tras.bmp,Good,self,No,m,k,0,246
4214,19,right,male,1,8,坏人,sqro.bmp,Bad,other,Yes,k,m,0,281
4214,19,right,male,1,9,好人,cirs.bmp,Ord,self,No,k,k,1,235
4214,19,right,male,1,10,常人,trao.bmp,Good,other,No,k,k,1,300
4214,19,right,male,1,11,坏人,cirs.bmp,Ord,self,No,k,k,1,286
4214,19,right,male,1,12,好人,tras.bmp,Good,self,Yes,k,m,0,320
4214,19,right,male,1,13,常人,tras.bmp,Good,self,No,m,k,0,186
4214,19,right,male,1,14,好人,trao.bmp,Good,other,Yes,m,m,1,214
4214,19,right,male,1,15,好人,tras.bmp,Good,self,Yes,m,m,1,346
4214,19,right,male,1,16,好人,trao.bmp,Good,other,Yes,m,m,1,316
4214,19,right,male,1,17,坏人,sqro.bmp,Bad,other,Yes,m,m,1,369
4214,19,right,male,1,18,好人,sqrs.bmp,Bad,self,No,k,k,1,509
4214,19,right,male,1,19,常人,ciro.bmp,Ord,other,Yes,m,m,1,741
4214,19,right,male,1,20,好人,ciro.bmp,Ord,other,No,k,k,1,469
4214,19,right,male,1,21,坏人,ciro.bmp,Ord,other,No,m,k,0,227
4214,19,right,male,1,22,常人,cirs.bmp,Ord,self,Yes,m,m,1,243
4214,19,right,male,1,23,常人,cirs.bmp,Ord,self,Yes,m,m,1,313
4214,19,right,male,1,24,坏人,sqrs.bmp,Bad,self,Yes,m,m,1,345
4214,19,right,male,1,25,坏人,sqro.bmp,Bad,other,Yes,m,m,1,330
4214,19,right,male,1,26,常人,trao.bmp,Good,other,No,m,k,0,250
4214,19,right,male,1,27,好人,tras.bmp,Good,self,Yes,k,m,0,280
4214,19,right,male,1,28,常人,tras.bmp,Good,self,No,k,k,1,312
4214,19,right,male,1,29,坏人,sqrs.bmp,Bad,self,Yes,k,m,0,452
4214,19,right,male,1,30,常人,ciro.bmp,Ord,other,Yes,m,m,1,354
4214,19,right,male,1,31,常人,cirs.bmp,Ord,self,Yes,m,m,1,360
4214,19,right,male,1,32,好人,ciro.bmp,Ord,other,No,m,k,0,231
4214,19,right,male,1,33,好人,trao.bmp,Good,other,Yes,m,m,1,271
4214,19,right,male,1,34,坏人,sqrs.bmp,Bad,self,Yes,m,m,1,317
4214,19,right,male,1,35,常人,sqrs.bmp,Bad,self,No,m,k,0,246
4214,19,right,male,1,36,常人,ciro.bmp,Ord,other,Yes,m,m,1,260
4214,19,right,male,1,37,常人,cirs.bmp,Ord,self,Yes,m,m,1,276
4214,19,right,male,1,38,坏人,ciro.bmp,Ord,other,No,m,k,0,266
4214,19,right,male,1,39,常人,sqro.bmp,Bad,other,No,k,k,1,314
4214,19,right,male,1,40,坏人,tras.bmp,Good,self,No,k,k,1,375
4214,19,right,male,1,41,好人,trao.bmp,Good,other,Yes,k,m,0,337
4214,19,right,male,1,42,坏人,trao.bmp,Good,other,No,m,k,0,289
4214,19,right,male,1,43,好人,sqrs.bmp,Bad,self,No,m,k,0,359
4214,19,right,male,1,44,好人,tras.bmp,Good,self,Yes,m,m,1,285
4214,19,right,male,1,45,好人,sqro.bmp,Bad,other,No,m,k,0,323
4214,19,right,male,1,46,坏人,sqro.bmp,Bad,other,Yes,m,m,1,265
4214,19,right,male,1,47,坏人,cirs.bmp,Ord,self,No,m,k,0,369
4214,19,right,male,1,48,好人,cirs.bmp,Ord,self,No,k,k,1,495
4214,19,right,male,1,49,好人,ciro.bmp,Ord,other,No,k,k,1,552
4214,19,right,male,1,50,常人,tras.bmp,Good,self,No,k,k,1,390
4214,19,right,male,1,51,好人,sqro.bmp,Bad,other,No,k,k,1,380
4214,19,right,male,1,52,坏人,sqrs.bmp,Bad,self,Yes,k,m,0,280
4214,19,right,male,1,53,常人,cirs.bmp,Ord,self,Yes,m,m,1,244
4214,19,right,male,1,54,坏人,trao.bmp,Good,other,No,m,k,0,40
4214,19,right,male,1,55,坏人,sqro.bmp,Bad,other,Yes,m,m,1,338
4214,19,right,male,1,56,坏人,tras.bmp,Good,self,No,m,k,0,423
4214,19,right,male,1,57,好人,trao.bmp,Good,other,Yes,k,m,0,413
4214,19,right,male,1,58,好人,tras.bmp,Good,self,Yes,k,m,0,407
4214,19,right,male,1,59,常人,cirs.bmp,Ord,self,Yes,m,m,1,365
4214,19,right,male,1,60,坏人,cirs.bmp,Ord,self,No,m,k,0,339
4214,19,right,male,1,61,好人,trao.bmp,Good,other,Yes,m,m,1,341
4214,19,right,male,1,62,好人,cirs.bmp,Ord,self,No,m,k,0,349
4214,19,right,male,1,63,好人,tras.bmp,Good,self,Yes,m,m,1,551
4214,19,right,male,1,64,常人,ciro.bmp,Ord,other,Yes,m,m,1,695
4214,19,right,male,1,65,坏人,sqrs.bmp,Bad,self,Yes,m,m,1,479
4214,19,right,male,1,66,常人,ciro.bmp,Ord,other,Yes,m,m,1,315
4214,19,right,male,1,67,常人,trao.bmp,Good,other,No,m,k,0,277
4214,19,right,male,1,68,常人,sqrs.bmp,Bad,self,No,k,k,1,297
4214,19,right,male,1,69,常人,sqro.bmp,Bad,other,No,k,k,1,297
4214,19,right,male,1,70,坏人,ciro.bmp,Ord,other,No,k,k,1,253
4214,19,right,male,1,71,坏人,sqro.bmp,Bad,other,Yes,m,m,1,399
4214,19,right,male,1,72,好人,sqrs.bmp,Bad,self,No,m,k,0,268
4214,19,right,male,1,73,坏人,ciro.bmp,Ord,other,No,k,k,1,326
4214,19,right,male,1,74,常人,cirs.bmp,Ord,self,Yes,k,m,0,426
4214,19,right,male,1,75,好人,cirs.bmp,Ord,self,No,m,k,0,450
4214,19,right,male,1,76,好人,tras.bmp,Good,self,Yes,m,m,1,344
4214,19,right,male,1,77,坏人,sqro.bmp,Bad,other,Yes,m,m,1,466
4214,19,right,male,1,78,好人,sqro.bmp,Bad,other,No,m,k,0,264
4214,19,right,male,1,79,常人,cirs.bmp,Ord,self,Yes,m,m,1,279
4214,19,right,male,1,80,好人,ciro.bmp,Ord,other,No,m,k,0,339
4214,19,right,male,1,81,常人,sqrs.bmp,Bad,self,No,m,k,0,415
4214,19,right,male,1,82,常人,sqro.bmp,Bad,other,No,k,k,1,561
4214,19,right,male,1,83,常人,ciro.bmp,Ord,other,Yes,k,m,0,835
4214,19,right,male,1,84,好人,trao.bmp,Good,other,Yes,m,m,1,697
4214,19,right,male,1,85,坏人,sqrs.bmp,Bad,self,Yes,m,m,1,689
4214,19,right,male,1,86,坏人,trao.bmp,Good,other,No,k,k,1,281
4214,19,right,male,1,87,好人,trao.bmp,Good,other,Yes,m,m,1,255
4214,19,right,male,1,88,常人,trao.bmp,Good,other,No,,k,0,0
4214,19,right,male,1,89,好人,sqrs.bmp,Bad,self,No,m,k,0,466
4214,19,right,male,1,90,坏人,tras.bmp,Good,self,No,,k,0,0
4214,19,right,male,1,91,好人,tras.bmp,Good,self,Yes,m,m,1,51
4214,19,right,male,1,92,常人,tras.bmp,Good,self,No,,k,0,0
4214,19,right,male,1,93,坏人,sqro.bmp,Bad,other,Yes,m,m,1,203
4214,19,right,male,1,94,常人,ciro.bmp,Ord,other,Yes,,m,0,0
4214,19,right,male,1,95,坏人,sqrs.bmp,Bad,self,Yes,,m,0,0
4214,19,right,male,1,96,坏人,cirs.bmp,Ord,self,No,,k,0,0
4214,19,right,male,1,97,坏人,sqro.bmp,Bad,other,Yes,,m,0,0
4214,19,right,male,1,98,常人,cirs.bmp,Ord,self,Yes,,m,0,0
4214,19,right,male,1,99,好人,sqrs.bmp,Bad,self,No,,k,0,0
4214,19,right,male,1,100,好人,tras.bmp,Good,self,Yes,,m,0,0
4214,19,right,male,1,101,常人,sqrs.bmp,Bad,self,No,k,k,1,270
4214,19,right,male,1,102,好人,sqro.bmp,Bad,other,No,k,k,1,493
4214,19,right,male,1,103,常人,ciro.bmp,Ord,other,Yes,k,m,0,269
4214,19,right,male,1,104,常人,trao.bmp,Good,other,No,m,k,0,395
4214,19,right,male,1,105,好人,trao.bmp,Good,other,Yes,m,m,1,281
4214,19,right,male,1,106,坏人,trao.bmp,Good,other,No,m,k,0,311
4214,19,right,male,1,107,坏人,tras.bmp,Good,self,No,m,k,0,307
4214,19,right,male,1,108,常人,cirs.bmp,Ord,self,Yes,k,m,0,241
4214,19,right,male,1,109,好人,tras.bmp,Good,self,Yes,,m,0,0
4214,19,right,male,1,110,坏人,sqrs.bmp,Bad,self,Yes,,m,0,0
4214,19,right,male,1,111,坏人,cirs.bmp,Ord,self,No,m,k,0,320
4214,19,right,male,1,112,坏人,sqrs.bmp,Bad,self,Yes,m,m,1,340
4214,19,right,male,1,113,好人,cirs.bmp,Ord,self,No,m,k,0,370
4214,19,right,male,1,114,常人,ciro.bmp,Ord,other,Yes,k,m,0,504
4214,19,right,male,1,115,常人,tras.bmp,Good,self,No,m,k,0,306
4214,19,right,male,1,116,坏人,sqro.bmp,Bad,other,Yes,m,m,1,246
4214,19,right,male,1,117,好人,ciro.bmp,Ord,other,No,m,k,0,608
4214,19,right,male,1,118,常人,sqro.bmp,Bad,other,No,m,k,0,323
4214,19,right,male,1,119,好人,trao.bmp,Good,other,Yes,m,m,1,74
4214,19,right,male,1,120,坏人,ciro.bmp,Ord,other,No,k,k,1,244
4214,19,right,male,2,1,坏人,sqrs.bmp,Bad,self,Yes,m,m,1,385
4214,19,right,male,2,2,好人,cirs.bmp,Ord,self,No,m,k,0,361
4214,19,right,male,2,3,好人,tras.bmp,Good,self,Yes,k,m,0,239
4214,19,right,male,2,4,坏人,sqro.bmp,Bad,other,Yes,,m,0,0
4214,19,right,male,2,5,好人,ciro.bmp,Ord,other,No,m,k,0,279
4214,19,right,male,2,6,好人,trao.bmp,Good,other,Yes,m,m,1,289
4214,19,right,male,2,7,常人,sqrs.bmp,Bad,self,No,m,k,0,237
4214,19,right,male,2,8,好人,sqrs.bmp,Bad,self,No,k,k,1,280
4214,19,right,male,2,9,常人,ciro.bmp,Ord,other,Yes,k,m,0,238
4214,19,right,male,2,10,坏人,cirs.bmp,Ord,self,No,k,k,1,276
4214,19,right,male,2,11,常人,cirs.bmp,Ord,self,Yes,k,m,0,266
4214,19,right,male,2,12,好人,tras.bmp,Good,self,Yes,m,m,1,196
4214,19,right,male,2,13,坏人,sqrs.bmp,Bad,self,Yes,m,m,1,204
4214,19,right,male,2,14,常人,ciro.bmp,Ord,other,Yes,m,m,1,252
4214,19,right,male,2,15,坏人,trao.bmp,Good,other,No,m,k,0,246
4214,19,right,male,2,16,好人,sqro.bmp,Bad,other,No,k,k,1,373
4214,19,right,male,2,17,好人,trao.bmp,Good,other,Yes,m,m,1,395
4214,19,right,male,2,18,坏人,tras.bmp,Good,self,No,m,k,0,231
4214,19,right,male,2,19,坏人,sqro.bmp,Bad,other,Yes,k,m,0,239
4214,19,right,male,2,20,常人,cirs.bmp,Ord,self,Yes,m,m,1,253
4214,19,right,male,2,21,常人,sqro.bmp,Bad,other,No,m,k,0,254
4214,19,right,male,2,22,常人,tras.bmp,Good,self,No,k,k,1,252
4214,19,right,male,2,23,坏人,ciro.bmp,Ord,other,No,k,k,1,162
4214,19,right,male,2,24,常人,trao.bmp,Good,other,No,m,k,0,255
4214,19,right,male,2,25,常人,cirs.bmp,Ord,self,Yes,m,m,1,203
4214,19,right,male,2,26,常人,tras.bmp,Good,self,No,m,k,0,277
4214,19,right,male,2,27,坏人,sqro.bmp,Bad,other,Yes,k,m,0,291
4214,19,right,male,2,28,常人,sqrs.bmp,Bad,self,No,m,k,0,249
4214,19,right,male,2,29,好人,tras.bmp,Good,self,Yes,m,m,1,487
4214,19,right,male,2,30,常人,ciro.bmp,Ord,other,Yes,k,m,0,341
4214,19,right,male,2,31,常人,sqro.bmp,Bad,other,No,m,k,0,315
4214,19,right,male,2,32,坏人,cirs.bmp,Ord,self,No,m,k,0,312
4214,19,right,male,2,33,常人,cirs.bmp,Ord,self,Yes,m,m,1,312
4214,19,right,male,2,34,好人,trao.bmp,Good,other,Yes,m,m,1,274
4214,19,right,male,2,35,好人,cirs.bmp,Ord,self,No,m,k,0,206
4214,19,right,male,2,36,坏人,ciro.bmp,Ord,other,No,k,k,1,292
4214,19,right,male,2,37,好人,ciro.bmp,Ord,other,No,k,k,1,300
4214,19,right,male,2,38,常人,ciro.bmp,Ord,other,Yes,k,m,0,292
4214,19,right,male,2,39,坏人,tras.bmp,Good,self,No,m,k,0,247
4214,19,right,male,2,40,坏人,trao.bmp,Good,other,No,m,k,0,335
4214,19,right,male,2,41,好人,sqrs.bmp,Bad,self,No,k,k,1,393
4214,19,right,male,2,42,坏人,sqro.bmp,Bad,other,Yes,m,m,1,511
4214,19,right,male,2,43,坏人,sqrs.bmp,Bad,self,Yes,m,m,1,635
4214,19,right,male,2,44,好人,trao.bmp,Good,other,Yes,k,m,0,363
4214,19,right,male,2,45,常人,trao.bmp,Good,other,No,m,k,0,279
4214,19,right,male,2,46,坏人,sqrs.bmp,Bad,self,Yes,m,m,1,267
4214,19,right,male,2,47,好人,sqro.bmp,Bad,other,No,m,k,0,291
4214,19,right,male,2,48,好人,tras.bmp,Good,self,Yes,m,m,1,351
4214,19,right,male,2,49,好人,tras.bmp,Good,self,Yes,m,m,1,415
4214,19,right,male,2,50,常人,ciro.bmp,Ord,other,Yes,m,m,1,309
4214,19,right,male,2,51,好人,trao.bmp,Good,other,Yes,m,m,1,379
4214,19,right,male,2,52,坏人,tras.bmp,Good,self,No,m,k,0,267
4214,19,right,male,2,53,坏人,sqro.bmp,Bad,other,Yes,k,m,0,445
4214,19,right,male,2,54,好人,tras.bmp,Good,self,Yes,m,m,1,244
4214,19,right,male,2,55,坏人,ciro.bmp,Ord,other,No,m,k,0,434
4214,19,right,male,2,56,好人,sqrs.bmp,Bad,self,No,m,k,0,238
4214,19,right,male,2,57,常人,tras.bmp,Good,self,No,k,k,1,302
4214,19,right,male,2,58,常人,cirs.bmp,Ord,self,Yes,m,m,1,434
4214,19,right,male,2,59,坏人,sqrs.bmp,Bad,self,Yes,m,m,1,238
4214,19,right,male,2,60,好人,ciro.bmp,Ord,other,No,m,k,0,330
4214,19,right,male,2,61,坏人,trao.bmp,Good,other,No,m,k,0,273
4214,19,right,male,2,62,常人,trao.bmp,Good,other,No,m,k,0,241
4214,19,right,male,2,63,坏人,sqrs.bmp,Bad,self,Yes,k,m,0,279
4214,19,right,male,2,64,好人,sqro.bmp,Bad,other,No,k,k,1,251
4214,19,right,male,2,65,好人,cirs.bmp,Ord,self,No,k,k,1,417
4214,19,right,male,2,66,坏人,cirs.bmp,Ord,self,No,k,k,1,331
4214,19,right,male,2,67,常人,ciro.bmp,Ord,other,Yes,k,m,0,321
4214,19,right,male,2,68,常人,cirs.bmp,Ord,self,Yes,m,m,1,301
4214,19,right,male,2,69,坏人,sqro.bmp,Bad,other,Yes,m,m,1,516
4214,19,right,male,2,70,常人,sqro.bmp,Bad,other,No,m,k,0,432
4214,19,right,male,2,71,好人,trao.bmp,Good,other,Yes,m,m,1,352
4214,19,right,male,2,72,常人,sqrs.bmp,Bad,self,No,m,k,0,602
4214,19,right,male,2,73,坏人,trao.bmp,Good,other,No,m,k,0,556
4214,19,right,male,2,74,坏人,sqro.bmp,Bad,other,Yes,m,m,1,296
4214,19,right,male,2,75,常人,ciro.bmp,Ord,other,Yes,m,m,1,345
4214,19,right,male,2,76,好人,trao.bmp,Good,other,Yes,m,m,1,840
4214,19,right,male,2,77,常人,cirs.bmp,Ord,self,Yes,m,m,1,596
4214,19,right,male,2,78,好人,sqrs.bmp,Bad,self,No,m,k,0,678
4214,19,right,male,2,79,常人,tras.bmp,Good,self,No,m,k,0,216
4214,19,right,male,2,80,坏人,ciro.bmp,Ord,other,No,m,k,0,168
4214,19,right,male,2,81,好人,sqro.bmp,Bad,other,No,k,k,1,180
4214,19,right,male,2,82,好人,cirs.bmp,Ord,self,No,k,k,1,346
4214,19,right,male,2,83,常人,sqro.bmp,Bad,other,No,m,k,0,596
4214,19,right,male,2,84,坏人,sqrs.bmp,Bad,self,Yes,m,m,1,471
4214,19,right,male,2,85,常人,trao.bmp,Good,other,No,m,k,0,429
4214,19,right,male,2,86,坏人,tras.bmp,Good,self,No,m,k,0,327
4214,19,right,male,2,87,好人,trao.bmp,Good,other,Yes,k,m,0,281
4214,19,right,male,2,88,常人,ciro.bmp,Ord,other,Yes,k,m,0,357
4214,19,right,male,2,89,好人,ciro.bmp,Ord,other,No,m,k,0,301
4214,19,right,male,2,90,坏人,sqrs.bmp,Bad,self,Yes,m,m,1,273
4214,19,right,male,2,91,常人,sqrs.bmp,Bad,self,No,m,k,0,407
4214,19,right,male,2,92,好人,tras.bmp,Good,self,Yes,k,m,0,429
4214,19,right,male,2,93,坏人,cirs.bmp,Ord,self,No,m,k,0,372
4214,19,right,male,2,94,好人,tras.bmp,Good,self,Yes,m,m,1,350
4214,19,right,male,2,95,坏人,sqro.bmp,Bad,other,Yes,m,m,1,440
4214,19,right,male,2,96,常人,cirs.bmp,Ord,self,Yes,m,m,1,578
4214,19,right,male,2,97,常人,cirs.bmp,Ord,self,Yes,m,m,1,638
4214,19,right,male,2,98,常人,sqro.bmp,Bad,other,No,m,k,0,490
4214,19,right,male,2,99,好人,trao.bmp,Good,other,Yes,m,m,1,220
4214,19,right,male,2,100,坏人,cirs.bmp,Ord,self,No,m,k,0,265
4214,19,right,male,2,101,好人,tras.bmp,Good,self,Yes,m,m,1,229
4214,19,right,male,2,102,好人,cirs.bmp,Ord,self,No,m,k,0,297
4214,19,right,male,2,103,好人,ciro.bmp,Ord,other,No,m,k,0,141
4214,19,right,male,2,104,坏人,tras.bmp,Good,self,No,m,k,0,178
4214,19,right,male,2,105,常人,trao.bmp,Good,other,No,k,k,1,362
4214,19,right,male,2,106,好人,trao.bmp,Good,other,Yes,k,m,0,478
4214,19,right,male,2,107,好人,tras.bmp,Good,self,Yes,k,m,0,580
4214,19,right,male,2,108,坏人,ciro.bmp,Ord,other,No,m,k,0,512
4214,19,right,male,2,109,常人,cirs.bmp,Ord,self,Yes,m,m,1,317
4214,19,right,male,2,110,好人,sqrs.bmp,Bad,self,No,m,k,0,533
4214,19,right,male,2,111,常人,ciro.bmp,Ord,other,Yes,m,m,1,445
4214,19,right,male,2,112,常人,ciro.bmp,Ord,other,Yes,m,m,1,291
4214,19,right,male,2,113,坏人,sqrs.bmp,Bad,self,Yes,m,m,1,263
4214,19,right,male,2,114,坏人,sqro.bmp,Bad,other,Yes,k,m,0,557
4214,19,right,male,2,115,坏人,sqrs.bmp,Bad,self,Yes,m,m,1,202
4214,19,right,male,2,116,坏人,sqro.bmp,Bad,other,Yes,m,m,1,366
4214,19,right,male,2,117,常人,tras.bmp,Good,self,No,m,k,0,568
4214,19,right,male,2,118,好人,sqro.bmp,Bad,other,No,m,k,0,250
4214,19,right,male,2,119,坏人,trao.bmp,Good,other,No,m,k,0,50
4214,19,right,male,2,120,常人,sqrs.bmp,Bad,self,No,k,k,1,40
4214,19,right,male,3,1,好人,tras.bmp,Good,self,Yes,m,m,1,393
4214,19,right,male,3,2,坏人,sqro.bmp,Bad,other,Yes,,m,0,0
4214,19,right,male,3,3,常人,trao.bmp,Good,other,No,m,k,0,289
4214,19,right,male,3,4,常人,cirs.bmp,Ord,self,Yes,m,m,1,275
4214,19,right,male,3,5,坏人,tras.bmp,Good,self,No,m,k,0,329
4214,19,right,male,3,6,常人,tras.bmp,Good,self,No,m,k,0,469
4214,19,right,male,3,7,常人,ciro.bmp,Ord,other,Yes,m,m,1,651
4214,19,right,male,3,8,坏人,sqrs.bmp,Bad,self,Yes,k,m,0,701
4214,19,right,male,3,9,好人,sqro.bmp,Bad,other,No,m,k,0,398
4214,19,right,male,3,10,坏人,sqrs.bmp,Bad,self,Yes,m,m,1,210
4214,19,right,male,3,11,坏人,cirs.bmp,Ord,self,No,m,k,0,328
4214,19,right,male,3,12,好人,cirs.bmp,Ord,self,No,m,k,0,256
4214,19,right,male,3,13,常人,sqro.bmp,Bad,other,No,k,k,1,272
4214,19,right,male,3,14,常人,cirs.bmp,Ord,self,Yes,k,m,0,606
4214,19,right,male,3,15,好人,sqrs.bmp,Bad,self,No,m,k,0,396
4214,19,right,male,3,16,好人,trao.bmp,Good,other,Yes,m,m,1,367
4214,19,right,male,3,17,好人,ciro.bmp,Ord,other,No,m,k,0,565
4214,19,right,male,3,18,常人,ciro.bmp,Ord,other,Yes,m,m,1,507
4214,19,right,male,3,19,好人,tras.bmp,Good,self,Yes,m,m,1,635
4214,19,right,male,3,20,坏人,ciro.bmp,Ord,other,No,m,k,0,505
4214,19,right,male,3,21,好人,trao.bmp,Good,other,Yes,m,m,1,329
4214,19,right,male,3,22,常人,sqrs.bmp,Bad,self,No,m,k,0,615
4214,19,right,male,3,23,坏人,trao.bmp,Good,other,No,k,k,1,661
4214,19,right,male,3,24,坏人,sqro.bmp,Bad,other,Yes,m,m,1,847
4214,19,right,male,3,25,坏人,sqro.bmp,Bad,other,Yes,m,m,1,576
4214,19,right,male,3,26,坏人,sqrs.bmp,Bad,self,Yes,m,m,1,480
4214,19,right,male,3,27,好人,sqro.bmp,Bad,other,No,m,k,0,368
4214,19,right,male,3,28,常人,tras.bmp,Good,self,No,m,k,0,428
4214,19,right,male,3,29,常人,sqro.bmp,Bad,other,No,m,k,0,257
4214,19,right,male,3,30,坏人,trao.bmp,Good,other,No,m,k,0,245
4214,19,right,male,3,31,常人,sqrs.bmp,Bad,self,No,m,k,0,318
4214,19,right,male,3,32,常人,trao.bmp,Good,other,No,k,k,1,446
4214,19,right,male,3,33,好人,trao.bmp,Good,other,Yes,m,m,1,600
4214,19,right,male,3,34,常人,ciro.bmp,Ord,other,Yes,m,m,1,634
4214,19,right,male,3,35,坏人,tras.bmp,Good,self,No,m,k,0,882
4214,19,right,male,3,36,好人,trao.bmp,Good,other,Yes,m,m,1,568
4214,19,right,male,3,37,好人,tras.bmp,Good,self,Yes,m,m,1,394
4214,19,right,male,3,38,常人,cirs.bmp,Ord,self,Yes,m,m,1,452
4214,19,right,male,3,39,坏人,sqrs.bmp,Bad,self,Yes,k,m,0,757
4214,19,right,male,3,40,常人,ciro.bmp,Ord,other,Yes,m,m,1,595
4214,19,right,male,3,41,常人,cirs.bmp,Ord,self,Yes,m,m,1,721
4214,19,right,male,3,42,好人,cirs.bmp,Ord,self,No,m,k,0,415
4214,19,right,male,3,43,坏人,cirs.bmp,Ord,self,No,k,k,1,683
4214,19,right,male,3,44,好人,tras.bmp,Good,self,Yes,m,m,1,571
4214,19,right,male,3,45,好人,sqrs.bmp,Bad,self,No,k,k,1,399
4214,19,right,male,3,46,好人,ciro.bmp,Ord,other,No,m,k,0,501
4214,19,right,male,3,47,坏人,ciro.bmp,Ord,other,No,m,k,0,310
4214,19,right,male,3,48,坏人,sqro.bmp,Bad,other,Yes,m,m,1,354
4214,19,right,male,3,49,好人,tras.bmp,Good,self,Yes,m,m,1,420
4214,19,right,male,3,50,坏人,sqrs.bmp,Bad,self,Yes,m,m,1,730
4214,19,right,male,3,51,常人,cirs.bmp,Ord,self,Yes,k,m,0,998
4214,19,right,male,3,52,坏人,trao.bmp,Good,other,No,m,k,0,586
4214,19,right,male,3,53,坏人,sqro.bmp,Bad,other,Yes,k,m,0,594
4214,19,right,male,3,54,好人,trao.bmp,Good,other,Yes,m,m,1,444
4214,19,right,male,3,55,常人,trao.bmp,Good,other,No,m,k,0,371
4214,19,right,male,3,56,常人,sqrs.bmp,Bad,self,No,k,k,1,381
4214,19,right,male,3,57,坏人,sqrs.bmp,Bad,self,Yes,k,m,0,922
4214,19,right,male,3,58,坏人,sqro.bmp,Bad,other,Yes,m,m,1,672
4214,19,right,male,3,59,常人,ciro.bmp,Ord,other,Yes,m,m,1,356
4214,19,right,male,3,60,好人,trao.bmp,Good,other,Yes,m,m,1,472
4214,19,right,male,3,61,好人,ciro.bmp,Ord,other,No,m,k,0,328
4214,19,right,male,3,62,常人,sqro.bmp,Bad,other,No,m,k,0,270
4214,19,right,male,3,63,坏人,ciro.bmp,Ord,other,No,m,k,0,378
4214,19,right,male,3,64,好人,cirs.bmp,Ord,self,No,m,k,0,433
4214,19,right,male,3,65,坏人,cirs.bmp,Ord,self,No,k,k,1,279
4214,19,right,male,3,66,常人,ciro.bmp,Ord,other,Yes,k,m,0,389
4214,19,right,male,3,67,常人,cirs.bmp,Ord,self,Yes,k,m,0,441
4214,19,right,male,3,68,常人,tras.bmp,Good,self,No,k,k,1,465
4214,19,right,male,3,69,好人,sqro.bmp,Bad,other,No,m,k,0,405
4214,19,right,male,3,70,坏人,tras.bmp,Good,self,No,m,k,0,329
4214,19,right,male,3,71,好人,tras.bmp,Good,self,Yes,m,m,1,571
4214,19,right,male,3,72,好人,sqrs.bmp,Bad,self,No,m,k,0,652
4214,19,right,male,3,73,好人,ciro.bmp,Ord,other,No,m,k,0,350
4214,19,right,male,3,74,坏人,sqrs.bmp,Bad,self,Yes,k,m,0,290
4214,19,right,male,3,75,好人,trao.bmp,Good,other,Yes,k,m,0,324
4214,19,right,male,3,76,坏人,trao.bmp,Good,other,No,m,k,0,302
4214,19,right,male,3,77,常人,tras.bmp,Good,self,No,m,k,0,316
4214,19,right,male,3,78,坏人,cirs.bmp,Ord,self,No,m,k,0,600
4214,19,right,male,3,79,坏人,sqrs.bmp,Bad,self,Yes,m,m,1,647
4214,19,right,male,3,80,好人,cirs.bmp,Ord,self,No,m,k,0,807
4214,19,right,male,3,81,坏人,sqro.bmp,Bad,other,Yes,m,m,1,687
4214,19,right,male,3,82,好人,tras.bmp,Good,self,Yes,m,m,1,543
4214,19,right,male,3,83,坏人,sqro.bmp,Bad,other,Yes,m,m,1,361
4214,19,right,male,3,84,常人,cirs.bmp,Ord,self,Yes,m,m,1,257
4214,19,right,male,3,85,好人,sqrs.bmp,Bad,self,No,m,k,0,625
4214,19,right,male,3,86,常人,sqro.bmp,Bad,other,No,m,k,0,660
4214,19,right,male,3,87,坏人,ciro.bmp,Ord,other,No,k,k,1,340
4214,19,right,male,3,88,常人,ciro.bmp,Ord,other,Yes,k,m,0,371
4214,19,right,male,3,89,坏人,tras.bmp,Good,self,No,m,k,0,501
4214,19,right,male,3,90,好人,trao.bmp,Good,other,Yes,k,m,0,327
4214,19,right,male,3,91,常人,sqrs.bmp,Bad,self,No,m,k,0,45
4214,19,right,male,3,92,常人,cirs.bmp,Ord,self,Yes,m,m,1,343
4214,19,right,male,3,93,常人,trao.bmp,Good,other,No,m,k,0,397
4214,19,right,male,3,94,好人,tras.bmp,Good,self,Yes,k,m,0,373
4214,19,right,male,3,95,好人,sqro.bmp,Bad,other,No,m,k,0,306
4214,19,right,male,3,96,常人,ciro.bmp,Ord,other,Yes,m,m,1,310
4214,19,right,male,3,97,好人,trao.bmp,Good,other,Yes,m,m,1,622
4214,19,right,male,3,98,好人,cirs.bmp,Ord,self,No,m,k,0,758
4214,19,right,male,3,99,坏人,sqrs.bmp,Bad,self,Yes,m,m,1,604
4214,19,right,male,3,100,坏人,sqrs.bmp,Bad,self,Yes,m,m,1,698
4214,19,right,male,3,101,常人,trao.bmp,Good,other,No,k,k,1,902
4214,19,right,male,3,102,常人,cirs.bmp,Ord,self,Yes,m,m,1,902
4214,19,right,male,3,103,常人,sqro.bmp,Bad,other,No,m,k,0,687
4214,19,right,male,3,104,坏人,cirs.bmp,Ord,self,No,k,k,1,341
4214,19,right,male,3,105,好人,trao.bmp,Good,other,Yes,m,m,1,313
4214,19,right,male,3,106,常人,ciro.bmp,Ord,other,Yes,m,m,1,109
4214,19,right,male,3,107,坏人,tras.bmp,Good,self,No,k,k,1,319
4214,19,right,male,3,108,常人,cirs.bmp,Ord,self,Yes,m,m,1,615
4214,19,right,male,3,109,坏人,sqro.bmp,Bad,other,Yes,k,m,0,361
4214,19,right,male,3,110,坏人,ciro.bmp,Ord,other,No,m,k,0,209
4214,19,right,male,3,111,常人,sqrs.bmp,Bad,self,No,m,k,0,236
4214,19,right,male,3,112,常人,ciro.bmp,Ord,other,Yes,m,m,1,296
4214,19,right,male,3,113,坏人,trao.bmp,Good,other,No,m,k,0,215
4214,19,right,male,3,114,好人,tras.bmp,Good,self,Yes,m,m,1,113
4214,19,right,male,3,115,好人,tras.bmp,Good,self,Yes,k,m,0,331
4214,19,right,male,3,116,好人,sqro.bmp,Bad,other,No,m,k,0,327
4214,19,right,male,3,117,常人,tras.bmp,Good,self,No,m,k,0,269
4214,19,right,male,3,118,坏人,sqro.bmp,Bad,other,Yes,m,m,1,254
4214,19,right,male,3,119,好人,ciro.bmp,Ord,other,No,m,k,0,628
4214,19,right,male,3,120,好人,sqrs.bmp,Bad,self,No,m,k,0,194
4214,19,right,male,4,1,好人,trao.bmp,Good,other,Yes,m,m,1,523
4214,19,right,male,4,2,常人,trao.bmp,Good,other,No,m,k,0,291
4214,19,right,male,4,3,好人,ciro.bmp,Ord,other,No,k,k,1,325
4214,19,right,male,4,4,坏人,cirs.bmp,Ord,self,No,k,k,1,299
4214,19,right,male,4,5,常人,sqrs.bmp,Bad,self,No,k,k,1,233
4214,19,right,male,4,6,坏人,sqro.bmp,Bad,other,Yes,m,m,1,219
4214,19,right,male,4,7,坏人,sqrs.bmp,Bad,self,Yes,m,m,1,194
4214,19,right,male,4,8,好人,trao.bmp,Good,other,Yes,m,m,1,298
4214,19,right,male,4,9,好人,sqrs.bmp,Bad,self,No,m,k,0,268
4214,19,right,male,4,10,坏人,tras.bmp,Good,self,No,k,k,1,236
4214,19,right,male,4,11,坏人,trao.bmp,Good,other,No,k,k,1,274
4214,19,right,male,4,12,好人,sqro.bmp,Bad,other,No,k,k,1,308
4214,19,right,male,4,13,常人,ciro.bmp,Ord,other,Yes,m,m,1,248
4214,19,right,male,4,14,常人,cirs.bmp,Ord,self,Yes,m,m,1,360
4214,19,right,male,4,15,常人,tras.bmp,Good,self,No,m,k,0,240
4214,19,right,male,4,16,坏人,sqro.bmp,Bad,other,Yes,m,m,1,394
4214,19,right,male,4,17,坏人,sqrs.bmp,Bad,self,Yes,k,m,0,338
4214,19,right,male,4,18,好人,cirs.bmp,Ord,self,No,k,k,1,380
4214,19,right,male,4,19,常人,cirs.bmp,Ord,self,Yes,m,m,1,238
4214,19,right,male,4,20,好人,tras.bmp,Good,self,Yes,m,m,1,234
4214,19,right,male,4,21,好人,tras.bmp,Good,self,Yes,m,m,1,348
4214,19,right,male,4,22,常人,ciro.bmp,Ord,other,Yes,m,m,1,355
4214,19,right,male,4,23,坏人,ciro.bmp,Ord,other,No,m,k,0,243
4214,19,right,male,4,24,常人,sqro.bmp,Bad,other,No,m,k,0,273
4214,19,right,male,4,25,常人,ciro.bmp,Ord,other,Yes,m,m,1,195
4214,19,right,male,4,26,坏人,tras.bmp,Good,self,No,m,k,0,617
4214,19,right,male,4,27,好人,sqro.bmp,Bad,other,No,k,k,1,423
4214,19,right,male,4,28,坏人,sqro.bmp,Bad,other,Yes,k,m,0,689
4214,19,right,male,4,29,坏人,sqrs.bmp,Bad,self,Yes,m,m,1,565
4214,19,right,male,4,30,好人,tras.bmp,Good,self,Yes,k,m,0,910
4214,19,right,male,4,31,好人,ciro.bmp,Ord,other,No,m,k,0,598
4214,19,right,male,4,32,坏人,sqrs.bmp,Bad,self,Yes,m,m,1,432
4214,19,right,male,4,33,常人,sqrs.bmp,Bad,self,No,m,k,0,672
4214,19,right,male,4,34,坏人,trao.bmp,Good,other,No,k,k,1,736
4214,19,right,male,4,35,坏人,ciro.bmp,Ord,other,No,m,k,0,630
4214,19,right,male,4,36,坏人,sqro.bmp,Bad,other,Yes,m,m,1,320
4214,19,right,male,4,37,常人,cirs.bmp,Ord,self,Yes,m,m,1,315
4214,19,right,male,4,38,常人,tras.bmp,Good,self,No,k,k,1,769
4214,19,right,male,4,39,坏人,cirs.bmp,Ord,self,No,m,k,0,659
4214,19,right,male,4,40,常人,cirs.bmp,Ord,self,Yes,k,m,0,289
4214,19,right,male,4,41,常人,ciro.bmp,Ord,other,Yes,m,m,1,355
4214,19,right,male,4,42,好人,trao.bmp,Good,other,Yes,m,m,1,438
4214,19,right,male,4,43,好人,cirs.bmp,Ord,self,No,m,k,0,29
4214,19,right,male,4,44,好人,trao.bmp,Good,other,Yes,m,m,1,220
4214,19,right,male,4,45,好人,sqrs.bmp,Bad,self,No,m,k,0,567
4214,19,right,male,4,46,常人,sqro.bmp,Bad,other,No,k,k,1,781
4214,19,right,male,4,47,常人,trao.bmp,Good,other,No,m,k,0,647
4214,19,right,male,4,48,好人,tras.bmp,Good,self,Yes,m,m,1,337
4214,19,right,male,4,49,坏人,sqro.bmp,Bad,other,Yes,k,m,0,213
4214,19,right,male,4,50,坏人,cirs.bmp,Ord,self,No,m,k,0,329
4214,19,right,male,4,51,好人,sqro.bmp,Bad,other,No,m,k,0,559
4214,19,right,male,4,52,好人,sqrs.bmp,Bad,self,No,m,k,0,410
4214,19,right,male,4,53,常人,ciro.bmp,Ord,other,Yes,k,m,0,696
4214,19,right,male,4,54,好人,trao.bmp,Good,other,Yes,m,m,1,252
4214,19,right,male,4,55,坏人,tras.bmp,Good,self,No,k,k,1,696
4214,19,right,male,4,56,常人,sqrs.bmp,Bad,self,No,m,k,0,1034
4214,19,right,male,4,57,常人,cirs.bmp,Ord,self,Yes,k,m,0,674
4214,19,right,male,4,58,常人,tras.bmp,Good,self,No,m,k,0,244
4214,19,right,male,4,59,常人,ciro.bmp,Ord,other,Yes,m,m,1,290
4214,19,right,male,4,60,好人,tras.bmp,Good,self,Yes,m,m,1,310
4214,19,right,male,4,61,坏人,ciro.bmp,Ord,other,No,m,k,0,243
4214,19,right,male,4,62,坏人,sqro.bmp,Bad,other,Yes,m,m,1,179
4214,19,right,male,4,63,坏人,trao.bmp,Good,other,No,m,k,0,113
4214,19,right,male,4,64,坏人,sqrs.bmp,Bad,self,Yes,m,m,1,297
4214,19,right,male,4,65,好人,trao.bmp,Good,other,Yes,m,m,1,291
4214,19,right,male,4,66,常人,trao.bmp,Good,other,No,m,k,0,239
4214,19,right,male,4,67,好人,cirs.bmp,Ord,self,No,m,k,0,313
4214,19,right,male,4,68,常人,cirs.bmp,Ord,self,Yes,k,m,0,712
4214,19,right,male,4,69,常人,sqro.bmp,Bad,other,No,m,k,0,699
4214,19,right,male,4,70,好人,tras.bmp,Good,self,Yes,m,m,1,315
4214,19,right,male,4,71,好人,ciro.bmp,Ord,other,No,m,k,0,531
4214,19,right,male,4,72,坏人,sqrs.bmp,Bad,self,Yes,m,m,1,159
4214,19,right,male,4,73,常人,sqro.bmp,Bad,other,No,m,k,0,241
4214,19,right,male,4,74,坏人,ciro.bmp,Ord,other,No,m,k,0,283
4214,19,right,male,4,75,常人,tras.bmp,Good,self,No,k,k,1,273
4214,19,right,male,4,76,常人,ciro.bmp,Ord,other,Yes,k,m,0,346
4214,19,right,male,4,77,坏人,tras.bmp,Good,self,No,k,k,1,264
4214,19,right,male,4,78,好人,cirs.bmp,Ord,self,No,m,k,0,552
4214,19,right,male,4,79,好人,trao.bmp,Good,other,Yes,m,m,1,706
4214,19,right,male,4,80,坏人,sqrs.bmp,Bad,self,Yes,k,m,0,850
4214,19,right,male,4,81,常人,cirs.bmp,Ord,self,Yes,m,m,1,368
4214,19,right,male,4,82,好人,tras.bmp,Good,self,Yes,k,m,0,748
4214,19,right,male,4,83,坏人,sqro.bmp,Bad,other,Yes,m,m,1,562
4214,19,right,male,4,84,坏人,cirs.bmp,Ord,self,No,m,k,0,357
4214,19,right,male,4,85,好人,ciro.bmp,Ord,other,No,m,k,0,243
4214,19,right,male,4,86,坏人,trao.bmp,Good,other,No,m,k,0,411
4214,19,right,male,4,87,常人,ciro.bmp,Ord,other,Yes,k,m,0,915
4214,19,right,male,4,88,常人,sqrs.bmp,Bad,self,No,m,k,0,745
4214,19,right,male,4,89,常人,trao.bmp,Good,other,No,m,k,0,633
4214,19,right,male,4,90,常人,cirs.bmp,Ord,self,Yes,k,m,0,833
4214,19,right,male,4,91,坏人,sqro.bmp,Bad,other,Yes,m,m,1,648
4214,19,right,male,4,92,坏人,sqrs.bmp,Bad,self,Yes,m,m,1,534
4214,19,right,male,4,93,好人,trao.bmp,Good,other,Yes,k,m,0,1058
4214,19,right,male,4,94,好人,sqrs.bmp,Bad,self,No,m,k,0,778
4214,19,right,male,4,95,好人,sqro.bmp,Bad,other,No,m,k,0,492
4214,19,right,male,4,96,好人,tras.bmp,Good,self,Yes,m,m,1,328
4214,19,right,male,4,97,好人,sqro.bmp,Bad,other,No,m,k,0,649
4214,19,right,male,4,98,好人,tras.bmp,Good,self,Yes,k,m,0,739
4214,19,right,male,4,99,坏人,sqrs.bmp,Bad,self,Yes,m,m,1,662
4214,19,right,male,4,100,坏人,cirs.bmp,Ord,self,No,k,k,1,1028
4214,19,right,male,4,101,常人,ciro.bmp,Ord,other,Yes,m,m,1,766
4214,19,right,male,4,102,坏人,tras.bmp,Good,self,No,k,k,1,890
4214,19,right,male,4,103,坏人,sqrs.bmp,Bad,self,Yes,m,m,1,626
4214,19,right,male,4,104,好人,tras.bmp,Good,self,Yes,m,m,1,336
4214,19,right,male,4,105,常人,cirs.bmp,Ord,self,Yes,m,m,1,336
4214,19,right,male,4,106,好人,cirs.bmp,Ord,self,No,k,k,1,656
4214,19,right,male,4,107,好人,trao.bmp,Good,other,Yes,m,m,1,444
4214,19,right,male,4,108,坏人,ciro.bmp,Ord,other,No,m,k,0,457
4214,19,right,male,4,109,好人,ciro.bmp,Ord,other,No,k,k,1,183
4214,19,right,male,4,110,常人,ciro.bmp,Ord,other,Yes,k,m,0,931
4214,19,right,male,4,111,坏人,sqro.bmp,Bad,other,Yes,m,m,1,573
4214,19,right,male,4,112,坏人,sqro.bmp,Bad,other,Yes,m,m,1,313
4214,19,right,male,4,113,常人,trao.bmp,Good,other,No,m,k,0,329
4214,19,right,male,4,114,常人,sqrs.bmp,Bad,self,No,k,k,1,265
4214,19,right,male,4,115,常人,tras.bmp,Good,self,No,m,k,0,407
4214,19,right,male,4,116,好人,sqrs.bmp,Bad,self,No,m,k,0,302
4214,19,right,male,4,117,好人,trao.bmp,Good,other,Yes,m,m,1,914
4214,19,right,male,4,118,坏人,trao.bmp,Good,other,No,m,k,0,692
4214,19,right,male,4,119,常人,cirs.bmp,Ord,self,Yes,k,m,0,594
4214,19,right,male,4,120,常人,sqro.bmp,Bad,other,No,k,k,1,266
4214,19,right,male,5,1,好人,sqrs.bmp,Bad,self,No,m,k,0,546
4214,19,right,male,5,2,坏人,ciro.bmp,Ord,other,No,m,k,0,402
4214,19,right,male,5,3,坏人,sqro.bmp,Bad,other,Yes,m,m,1,788
4214,19,right,male,5,4,坏人,cirs.bmp,Ord,self,No,k,k,1,726
4214,19,right,male,5,5,坏人,sqro.bmp,Bad,other,Yes,m,m,1,460
4214,19,right,male,5,6,常人,cirs.bmp,Ord,self,Yes,m,m,1,470
4214,19,right,male,5,7,好人,tras.bmp,Good,self,Yes,m,m,1,386
4214,19,right,male,5,8,常人,ciro.bmp,Ord,other,Yes,k,m,0,693
4214,19,right,male,5,9,好人,ciro.bmp,Ord,other,No,m,k,0,369
4214,19,right,male,5,10,常人,sqrs.bmp,Bad,self,No,m,k,0,829
4214,19,right,male,5,11,好人,trao.bmp,Good,other,Yes,k,m,0,567
4214,19,right,male,5,12,常人,sqro.bmp,Bad,other,No,k,k,1,293
4214,19,right,male,5,13,坏人,tras.bmp,Good,self,No,m,k,0,855
4214,19,right,male,5,14,坏人,sqrs.bmp,Bad,self,Yes,m,m,1,539
4214,19,right,male,5,15,好人,cirs.bmp,Ord,self,No,m,k,0,267
4214,19,right,male,5,16,好人,trao.bmp,Good,other,Yes,m,m,1,220
4214,19,right,male,5,17,好人,tras.bmp,Good,self,Yes,m,m,1,359
4214,19,right,male,5,18,常人,trao.bmp,Good,other,No,m,k,0,399
4214,19,right,male,5,19,坏人,trao.bmp,Good,other,No,k,k,1,397
4214,19,right,male,5,20,好人,sqro.bmp,Bad,other,No,m,k,0,923
4214,19,right,male,5,21,常人,ciro.bmp,Ord,other,Yes,k,m,0,499
4214,19,right,male,5,22,常人,tras.bmp,Good,self,No,m,k,0,585
4214,19,right,male,5,23,坏人,sqrs.bmp,Bad,self,Yes,k,m,0,788
4214,19,right,male,5,24,常人,cirs.bmp,Ord,self,Yes,m,m,1,646
4214,19,right,male,5,25,常人,sqro.bmp,Bad,other,No,m,k,0,592
4214,19,right,male,5,26,好人,ciro.bmp,Ord,other,No,m,k,0,332
4214,19,right,male,5,27,好人,tras.bmp,Good,self,Yes,m,m,1,410
4214,19,right,male,5,28,好人,trao.bmp,Good,other,Yes,m,m,1,1082
4214,19,right,male,5,29,常人,trao.bmp,Good,other,No,,k,0,0
4214,19,right,male,5,30,坏人,trao.bmp,Good,other,No,,k,0,0
4214,19,right,male,5,31,坏人,ciro.bmp,Ord,other,No,m,k,0,76
4214,19,right,male,5,32,好人,trao.bmp,Good,other,Yes,m,m,1,379
4214,19,right,male,5,33,坏人,sqrs.bmp,Bad,self,Yes,k,m,0,855
4214,19,right,male,5,34,好人,tras.bmp,Good,self,Yes,m,m,1,475
4214,19,right,male,5,35,坏人,tras.bmp,Good,self,No,m,k,0,241
4214,19,right,male,5,36,常人,cirs.bmp,Ord,self,Yes,m,m,1,239
4214,19,right,male,5,37,坏人,sqrs.bmp,Bad,self,Yes,m,m,1,299
4214,19,right,male,5,38,常人,ciro.bmp,Ord,other,Yes,m,m,1,634
4214,19,right,male,5,39,常人,ciro.bmp,Ord,other,Yes,m,m,1,555
4214,19,right,male,5,40,好人,cirs.bmp,Ord,self,No,m,k,0,536
4214,19,right,male,5,41,常人,tras.bmp,Good,self,No,k,k,1,302
4214,19,right,male,5,42,常人,sqrs.bmp,Bad,self,No,m,k,0,568
4214,19,right,male,5,43,坏人,sqro.bmp,Bad,other,Yes,m,m,1,417
4214,19,right,male,5,44,好人,sqro.bmp,Bad,other,No,m,k,0,431
4214,19,right,male,5,45,常人,cirs.bmp,Ord,self,Yes,m,m,1,288
4214,19,right,male,5,46,坏人,cirs.bmp,Ord,self,No,m,k,0,761
4214,19,right,male,5,47,坏人,sqro.bmp,Bad,other,Yes,k,m,0,440
4214,19,right,male,5,48,好人,sqrs.bmp,Bad,self,No,m,k,0,272
4214,19,right,male,5,49,好人,cirs.bmp,Ord,self,No,,k,0,0
4214,19,right,male,5,50,坏人,ciro.bmp,Ord,other,No,m,k,0,264
4214,19,right,male,5,51,坏人,sqro.bmp,Bad,other,Yes,m,m,1,30
4214,19,right,male,5,52,坏人,tras.bmp,Good,self,No,m,k,0,228
4214,19,right,male,5,53,坏人,sqrs.bmp,Bad,self,Yes,k,m,0,590
4214,19,right,male,5,54,好人,trao.bmp,Good,other,Yes,m,m,1,361
4214,19,right,male,5,55,常人,tras.bmp,Good,self,No,m,k,0,369
4214,19,right,male,5,56,好人,tras.bmp,Good,self,Yes,k,m,0,355
4214,19,right,male,5,57,常人,sqro.bmp,Bad,other,No,k,k,1,93
4214,19,right,male,5,58,好人,sqro.bmp,Bad,other,No,k,k,1,261
4214,19,right,male,5,59,常人,ciro.bmp,Ord,other,Yes,m,m,1,93
4214,19,right,male,5,60,常人,cirs.bmp,Ord,self,Yes,m,m,1,271
4214,19,right,male,5,61,坏人,trao.bmp,Good,other,No,k,k,1,501
4214,19,right,male,5,62,常人,ciro.bmp,Ord,other,Yes,m,m,1,454
4214,19,right,male,5,63,好人,ciro.bmp,Ord,other,No,m,k,0,440
4214,19,right,male,5,64,好人,sqrs.bmp,Bad,self,No,k,k,1,714
4214,19,right,male,5,65,好人,trao.bmp,Good,other,Yes,m,m,1,440
4214,19,right,male,5,66,好人,tras.bmp,Good,self,Yes,m,m,1,220
4214,19,right,male,5,67,坏人,sqro.bmp,Bad,other,Yes,k,m,0,168
4214,19,right,male,5,68,坏人,cirs.bmp,Ord,self,No,m,k,0,344
4214,19,right,male,5,69,常人,sqrs.bmp,Bad,self,No,m,k,0,355
4214,19,right,male,5,70,常人,trao.bmp,Good,other,No,k,k,1,337
4214,19,right,male,5,71,坏人,sqrs.bmp,Bad,self,Yes,m,m,1,374
4214,19,right,male,5,72,常人,cirs.bmp,Ord,self,Yes,k,m,0,830
4214,19,right,male,5,73,常人,trao.bmp,Good,other,No,m,k,0,492
4214,19,right,male,5,74,常人,ciro.bmp,Ord,other,Yes,m,m,1,434
4214,19,right,male,5,75,常人,sqro.bmp,Bad,other,No,m,k,0,464
4214,19,right,male,5,76,坏人,cirs.bmp,Ord,self,No,m,k,0,268
4214,19,right,male,5,77,好人,ciro.bmp,Ord,other,No,k,k,1,458
4214,19,right,male,5,78,好人,trao.bmp,Good,other,Yes,k,m,0,435
4214,19,right,male,5,79,好人,sqro.bmp,Bad,other,No,k,k,1,309
4214,19,right,male,5,80,常人,tras.bmp,Good,self,No,m,k,0,287
4214,19,right,male,5,81,好人,cirs.bmp,Ord,self,No,m,k,0,273
4214,19,right,male,5,82,常人,ciro.bmp,Ord,other,Yes,m,m,1,143
4214,19,right,male,5,83,常人,cirs.bmp,Ord,self,Yes,,m,0,0
4214,19,right,male,5,84,坏人,sqrs.bmp,Bad,self,Yes,,m,0,0
4214,19,right,male,5,85,坏人,sqro.bmp,Bad,other,Yes,m,m,1,59
4214,19,right,male,5,86,坏人,trao.bmp,Good,other,No,,k,0,0
4214,19,right,male,5,87,坏人,ciro.bmp,Ord,other,No,m,k,0,186
4214,19,right,male,5,88,坏人,sqrs.bmp,Bad,self,Yes,m,m,1,236
4214,19,right,male,5,89,常人,cirs.bmp,Ord,self,Yes,m,m,1,172
4214,19,right,male,5,90,坏人,tras.bmp,Good,self,No,m,k,0,314
4214,19,right,male,5,91,好人,trao.bmp,Good,other,Yes,k,m,0,324
4214,19,right,male,5,92,好人,tras.bmp,Good,self,Yes,k,m,0,241
4214,19,right,male,5,93,常人,sqrs.bmp,Bad,self,No,m,k,0,263
4214,19,right,male,5,94,好人,sqrs.bmp,Bad,self,No,m,k,0,317
4214,19,right,male,5,95,好人,tras.bmp,Good,self,Yes,m,m,1,315
4214,19,right,male,5,96,坏人,sqro.bmp,Bad,other,Yes,k,m,0,379
4214,19,right,male,5,97,好人,tras.bmp,Good,self,Yes,m,m,1,273
4214,19,right,male,5,98,坏人,sqro.bmp,Bad,other,Yes,m,m,1,231
4214,19,right,male,5,99,坏人,ciro.bmp,Ord,other,No,m,k,0,504
4214,19,right,male,5,100,坏人,sqrs.bmp,Bad,self,Yes,m,m,1,601
4214,19,right,male,5,101,坏人,trao.bmp,Good,other,No,k,k,1,777
4214,19,right,male,5,102,好人,tras.bmp,Good,self,Yes,m,m,1,499
4214,19,right,male,5,103,常人,trao.bmp,Good,other,No,m,k,0,613
4214,19,right,male,5,104,常人,cirs.bmp,Ord,self,Yes,k,m,0,539
4214,19,right,male,5,105,坏人,sqro.bmp,Bad,other,Yes,k,m,0,335
4214,19,right,male,5,106,常人,cirs.bmp,Ord,self,Yes,m,m,1,285
4214,19,right,male,5,107,好人,sqro.bmp,Bad,other,No,m,k,0,371
4214,19,right,male,5,108,坏人,tras.bmp,Good,self,No,m,k,0,241
4214,19,right,male,5,109,常人,tras.bmp,Good,self,No,m,k,0,340
4214,19,right,male,5,110,常人,ciro.bmp,Ord,other,Yes,m,m,1,496
4214,19,right,male,5,111,坏人,sqrs.bmp,Bad,self,Yes,k,m,0,432
4214,19,right,male,5,112,好人,trao.bmp,Good,other,Yes,m,m,1,232
4214,19,right,male,5,113,坏人,cirs.bmp,Ord,self,No,k,k,1,586
4214,19,right,male,5,114,好人,cirs.bmp,Ord,self,No,m,k,0,460
4214,19,right,male,5,115,常人,ciro.bmp,Ord,other,Yes,m,m,1,396
4214,19,right,male,5,116,好人,sqrs.bmp,Bad,self,No,k,k,1,847
4214,19,right,male,5,117,好人,ciro.bmp,Ord,other,No,m,k,0,687
4214,19,right,male,5,118,常人,sqro.bmp,Bad,other,No,k,k,1,925
4214,19,right,male,5,119,好人,trao.bmp,Good,other,Yes,m,m,1,981
4214,19,right,male,5,120,常人,sqrs.bmp,Bad,self,No,k,k,1,867
4214,19,right,male,6,1,坏人,cirs.bmp,Ord,self,No,m,k,0,895
4214,19,right,male,6,2,坏人,ciro.bmp,Ord,other,No,k,k,1,816
4214,19,right,male,6,3,好人,ciro.bmp,Ord,other,No,m,k,0,900
4214,19,right,male,6,4,常人,cirs.bmp,Ord,self,Yes,m,m,1,728
4214,19,right,male,6,5,常人,sqro.bmp,Bad,other,No,k,k,1,928
4214,19,right,male,6,6,好人,cirs.bmp,Ord,self,No,,k,0,0
4214,19,right,male,6,7,常人,trao.bmp,Good,other,No,k,k,1,462
4214,19,right,male,6,8,坏人,sqrs.bmp,Bad,self,Yes,m,m,1,600
4214,19,right,male,6,9,好人,trao.bmp,Good,other,Yes,k,m,0,655
4214,19,right,male,6,10,坏人,sqro.bmp,Bad,other,Yes,m,m,1,699
4214,19,right,male,6,11,好人,sqro.bmp,Bad,other,No,k,k,1,698
4214,19,right,male,6,12,好人,tras.bmp,Good,self,Yes,m,m,1,750
4214,19,right,male,6,13,好人,trao.bmp,Good,other,Yes,k,m,0,752
4214,19,right,male,6,14,好人,tras.bmp,Good,self,Yes,m,m,1,650
4214,19,right,male,6,15,坏人,tras.bmp,Good,self,No,k,k,1,792
4214,19,right,male,6,16,好人,sqrs.bmp,Bad,self,No,k,k,1,964
4214,19,right,male,6,17,坏人,sqrs.bmp,Bad,self,Yes,m,m,1,836
4214,19,right,male,6,18,常人,sqrs.bmp,Bad,self,No,k,k,1,1067
4214,19,right,male,6,19,常人,tras.bmp,Good,self,No,,k,0,0
4214,19,right,male,6,20,常人,cirs.bmp,Ord,self,Yes,m,m,1,897
4214,19,right,male,6,21,常人,ciro.bmp,Ord,other,Yes,k,m,0,679
4214,19,right,male,6,22,坏人,trao.bmp,Good,other,No,m,k,0,429
4214,19,right,male,6,23,坏人,sqro.bmp,Bad,other,Yes,k,m,0,769
4214,19,right,male,6,24,常人,ciro.bmp,Ord,other,Yes,m,m,1,661
4214,19,right,male,6,25,常人,cirs.bmp,Ord,self,Yes,k,m,0,809
4214,19,right,male,6,26,常人,tras.bmp,Good,self,No,k,k,1,868
4214,19,right,male,6,27,坏人,ciro.bmp,Ord,other,No,m,k,0,784
4214,19,right,male,6,28,常人,ciro.bmp,Ord,other,Yes,k,m,0,828
4214,19,right,male,6,29,常人,ciro.bmp,Ord,other,Yes,m,m,1,576
4214,19,right,male,6,30,常人,trao.bmp,Good,other,No,k,k,1,772
4214,19,right,male,6,31,好人,trao.bmp,Good,other,Yes,,m,0,0
4214,19,right,male,6,32,好人,cirs.bmp,Ord,self,No,k,k,1,558
4214,19,right,male,6,33,坏人,tras.bmp,Good,self,No,k,k,1,900
4214,19,right,male,6,34,常人,sqro.bmp,Bad,other,No,m,k,0,987
4214,19,right,male,6,35,坏人,trao.bmp,Good,other,No,k,k,1,503
4214,19,right,male,6,36,坏人,cirs.bmp,Ord,self,No,k,k,1,821
4214,19,right,male,6,37,好人,tras.bmp,Good,self,Yes,m,m,1,821
4214,19,right,male,6,38,好人,trao.bmp,Good,other,Yes,m,m,1,787
4214,19,right,male,6,39,好人,ciro.bmp,Ord,other,No,k,k,1,692
4214,19,right,male,6,40,坏人,sqro.bmp,Bad,other,Yes,m,m,1,392
4214,19,right,male,6,41,好人,sqro.bmp,Bad,other,No,m,k,0,361
4214,19,right,male,6,42,坏人,sqrs.bmp,Bad,self,Yes,m,m,1,321
4214,19,right,male,6,43,常人,sqrs.bmp,Bad,self,No,k,k,1,617
4214,19,right,male,6,44,坏人,sqro.bmp,Bad,other,Yes,m,m,1,685
4214,19,right,male,6,45,好人,sqrs.bmp,Bad,self,No,k,k,1,843
4214,19,right,male,6,46,坏人,sqrs.bmp,Bad,self,Yes,k,m,0,999
4214,19,right,male,6,47,好人,tras.bmp,Good,self,Yes,m,m,1,553
4214,19,right,male,6,48,常人,cirs.bmp,Ord,self,Yes,k,m,0,699
4214,19,right,male,6,49,好人,sqrs.bmp,Bad,self,No,m,k,0,510
4214,19,right,male,6,50,常人,sqro.bmp,Bad,other,No,k,k,1,868
4214,19,right,male,6,51,坏人,trao.bmp,Good,other,No,m,k,0,836
4214,19,right,male,6,52,坏人,cirs.bmp,Ord,self,No,,k,0,0
4214,19,right,male,6,53,坏人,sqro.bmp,Bad,other,Yes,m,m,1,278
4214,19,right,male,6,54,常人,sqrs.bmp,Bad,self,No,k,k,1,618
4214,19,right,male,6,55,常人,cirs.bmp,Ord,self,Yes,m,m,1,634
4214,19,right,male,6,56,好人,tras.bmp,Good,self,Yes,k,m,0,561
4214,19,right,male,6,57,坏人,sqrs.bmp,Bad,self,Yes,m,m,1,483
4214,19,right,male,6,58,常人,ciro.bmp,Ord,other,Yes,m,m,1,575
4214,19,right,male,6,59,常人,tras.bmp,Good,self,No,k,k,1,603
4214,19,right,male,6,60,常人,trao.bmp,Good,other,No,m,k,0,415
4214,19,right,male,6,61,好人,sqro.bmp,Bad,other,No,k,k,1,393
4214,19,right,male,6,62,坏人,tras.bmp,Good,self,No,m,k,0,605
4214,19,right,male,6,63,坏人,sqrs.bmp,Bad,self,Yes,k,m,0,713
4214,19,right,male,6,64,常人,ciro.bmp,Ord,other,Yes,m,m,1,476
4214,19,right,male,6,65,坏人,sqro.bmp,Bad,other,Yes,k,m,0,612
4214,19,right,male,6,66,常人,cirs.bmp,Ord,self,Yes,m,m,1,436
4214,19,right,male,6,67,好人,cirs.bmp,Ord,self,No,k,k,1,731
4214,19,right,male,6,68,好人,tras.bmp,Good,self,Yes,m,m,1,843
4214,19,right,male,6,69,坏人,ciro.bmp,Ord,other,No,k,k,1,721
4214,19,right,male,6,70,好人,trao.bmp,Good,other,Yes,,m,0,0
4214,19,right,male,6,71,好人,ciro.bmp,Ord,other,No,,k,0,0
4214,19,right,male,6,72,好人,trao.bmp,Good,other,Yes,m,m,1,253
4214,19,right,male,6,73,常人,trao.bmp,Good,other,No,k,k,1,300
4214,19,right,male,6,74,坏人,sqro.bmp,Bad,other,Yes,m,m,1,290
4214,19,right,male,6,75,坏人,sqro.bmp,Bad,other,Yes,m,m,1,310
4214,19,right,male,6,76,常人,sqrs.bmp,Bad,self,No,k,k,1,232
4214,19,right,male,6,77,坏人,ciro.bmp,Ord,other,No,m,k,0,228
4214,19,right,male,6,78,好人,tras.bmp,Good,self,Yes,m,m,1,194
4214,19,right,male,6,79,好人,cirs.bmp,Ord,self,No,k,k,1,374
4214,19,right,male,6,80,好人,sqrs.bmp,Bad,self,No,m,k,0,453
4214,19,right,male,6,81,常人,ciro.bmp,Ord,other,Yes,k,m,0,319
4214,19,right,male,6,82,常人,tras.bmp,Good,self,No,m,k,0,345
4214,19,right,male,6,83,坏人,cirs.bmp,Ord,self,No,m,k,0,185
4214,19,right,male,6,84,好人,trao.bmp,Good,other,Yes,k,m,0,371
4214,19,right,male,6,85,好人,ciro.bmp,Ord,other,No,k,k,1,747
4214,19,right,male,6,86,好人,trao.bmp,Good,other,Yes,m,m,1,635
4214,19,right,male,6,87,常人,sqro.bmp,Bad,other,No,k,k,1,731
4214,19,right,male,6,88,常人,ciro.bmp,Ord,other,Yes,m,m,1,460
4214,19,right,male,6,89,坏人,tras.bmp,Good,self,No,k,k,1,436
4214,19,right,male,6,90,常人,cirs.bmp,Ord,self,Yes,m,m,1,424
4214,19,right,male,6,91,坏人,trao.bmp,Good,other,No,k,k,1,330
4214,19,right,male,6,92,常人,cirs.bmp,Ord,self,Yes,m,m,1,284
4214,19,right,male,6,93,好人,sqro.bmp,Bad,other,No,k,k,1,292
4214,19,right,male,6,94,坏人,sqrs.bmp,Bad,self,Yes,m,m,1,226
4214,19,right,male,6,95,坏人,sqrs.bmp,Bad,self,Yes,m,m,1,257
4214,19,right,male,6,96,好人,tras.bmp,Good,self,Yes,k,m,0,288
4214,19,right,male,6,97,坏人,sqrs.bmp,Bad,self,Yes,m,m,1,366
4214,19,right,male,6,98,好人,sqro.bmp,Bad,other,No,m,k,0,342
4214,19,right,male,6,99,好人,sqrs.bmp,Bad,self,No,m,k,0,330
4214,19,right,male,6,100,坏人,cirs.bmp,Ord,self,No,k,k,1,310
4214,19,right,male,6,101,常人,trao.bmp,Good,other,No,m,k,0,392
4214,19,right,male,6,102,坏人,ciro.bmp,Ord,other,No,m,k,0,413
4214,19,right,male,6,103,坏人,trao.bmp,Good,other,No,k,k,1,593
4214,19,right,male,6,104,常人,cirs.bmp,Ord,self,Yes,m,m,1,597
4214,19,right,male,6,105,常人,sqro.bmp,Bad,other,No,m,k,0,561
4214,19,right,male,6,106,坏人,sqrs.bmp,Bad,self,Yes,k,m,0,407
4214,19,right,male,6,107,好人,tras.bmp,Good,self,Yes,k,m,0,325
4214,19,right,male,6,108,好人,trao.bmp,Good,other,Yes,m,m,1,501
4214,19,right,male,6,109,好人,ciro.bmp,Ord,other,No,k,k,1,663
4214,19,right,male,6,110,坏人,sqro.bmp,Bad,other,Yes,m,m,1,653
4214,19,right,male,6,111,坏人,tras.bmp,Good,self,No,k,k,1,594
4214,19,right,male,6,112,好人,tras.bmp,Good,self,Yes,m,m,1,590
4214,19,right,male,6,113,常人,ciro.bmp,Ord,other,Yes,k,m,0,636
4214,19,right,male,6,114,常人,tras.bmp,Good,self,No,m,k,0,514
4214,19,right,male,6,115,坏人,sqro.bmp,Bad,other,Yes,k,m,0,486
4214,19,right,male,6,116,好人,cirs.bmp,Ord,self,No,m,k,0,378
4214,19,right,male,6,117,常人,ciro.bmp,Ord,other,Yes,m,m,1,678
4214,19,right,male,6,118,常人,sqrs.bmp,Bad,self,No,k,k,1,665
4214,19,right,male,6,119,常人,cirs.bmp,Ord,self,Yes,m,m,1,885
4214,19,right,male,6,120,好人,trao.bmp,Good,other,Yes,k,m,0,737
4215,21,right,male,,1,好人,tras.bmp,Bad,self,No,,m,0,0
4215,21,right,male,,2,常人,tras.bmp,Bad,self,No,,m,0,0
4215,21,right,male,,3,坏人,tras.bmp,Bad,self,Yes,,k,0,0
4215,21,right,male,,4,好人,cirs.bmp,Good,self,Yes,,k,0,0
4215,21,right,male,,5,常人,trao.bmp,Bad,other,No,k,m,0,462
4215,21,right,male,,6,常人,sqrs.bmp,Ord,self,Yes,k,k,1,632
4215,21,right,male,,7,常人,sqrs.bmp,Ord,self,Yes,k,k,1,503
4215,21,right,male,,8,好人,ciro.bmp,Good,other,Yes,m,k,0,653
4215,21,right,male,,9,常人,sqro.bmp,Ord,other,Yes,k,k,1,437
4215,21,right,male,,10,好人,sqro.bmp,Ord,other,No,m,m,1,1005
4215,21,right,male,,11,好人,trao.bmp,Bad,other,No,m,m,1,852
4215,21,right,male,,12,常人,cirs.bmp,Good,self,No,m,m,1,1081
4215,21,right,male,,13,坏人,trao.bmp,Bad,other,Yes,k,k,1,1046
4215,21,right,male,,14,坏人,cirs.bmp,Good,self,No,m,m,1,1095
4215,21,right,male,,15,坏人,tras.bmp,Bad,self,Yes,k,k,1,837
4215,21,right,male,,16,常人,sqro.bmp,Ord,other,Yes,m,k,0,709
4215,21,right,male,,17,坏人,trao.bmp,Bad,other,Yes,m,k,0,755
4215,21,right,male,,18,好人,ciro.bmp,Good,other,Yes,,k,0,0
4215,21,right,male,,19,坏人,ciro.bmp,Good,other,No,k,m,0,696
4215,21,right,male,,20,好人,sqrs.bmp,Ord,self,No,m,m,1,862
4215,21,right,male,,21,坏人,sqrs.bmp,Ord,self,No,m,m,1,914
4215,21,right,male,,22,好人,cirs.bmp,Good,self,Yes,k,k,1,664
4215,21,right,male,,23,常人,ciro.bmp,Good,other,No,m,m,1,684
4215,21,right,male,,24,坏人,sqro.bmp,Ord,other,No,m,m,1,794
4215,21,right,male,,25,坏人,sqrs.bmp,Ord,self,No,m,m,1,568
4215,21,right,male,,26,好人,trao.bmp,Bad,other,No,m,m,1,808
4215,21,right,male,,27,好人,sqrs.bmp,Ord,self,No,m,m,1,618
4215,21,right,male,,28,坏人,tras.bmp,Bad,self,Yes,k,k,1,826
4215,21,right,male,,29,常人,sqro.bmp,Ord,other,Yes,m,k,0,738
4215,21,right,male,,30,坏人,cirs.bmp,Good,self,No,m,m,1,667
4215,21,right,male,,31,坏人,tras.bmp,Bad,self,Yes,m,k,0,1069
4215,21,right,male,,32,好人,ciro.bmp,Good,other,Yes,k,k,1,1059
4215,21,right,male,,33,好人,sqro.bmp,Ord,other,No,m,m,1,753
4215,21,right,male,,34,好人,ciro.bmp,Good,other,Yes,k,k,1,535
4215,21,right,male,,35,常人,cirs.bmp,Good,self,No,m,m,1,621
4215,21,right,male,,36,常人,trao.bmp,Bad,other,No,m,m,1,646
4215,21,right,male,,37,好人,cirs.bmp,Good,self,Yes,k,k,1,556
4215,21,right,male,,38,坏人,ciro.bmp,Good,other,No,k,m,0,752
4215,21,right,male,,39,坏人,trao.bmp,Bad,other,Yes,m,k,0,492
4215,21,right,male,,40,常人,tras.bmp,Bad,self,No,m,m,1,708
4215,21,right,male,,41,好人,cirs.bmp,Good,self,Yes,k,k,1,636
4215,21,right,male,,42,坏人,trao.bmp,Bad,other,Yes,m,k,0,572
4215,21,right,male,,43,好人,tras.bmp,Bad,self,No,m,m,1,643
4215,21,right,male,,44,常人,ciro.bmp,Good,other,No,k,m,0,513
4215,21,right,male,,45,常人,sqrs.bmp,Ord,self,Yes,m,k,0,787
4215,21,right,male,,46,常人,sqro.bmp,Ord,other,Yes,k,k,1,617
4215,21,right,male,,47,常人,sqrs.bmp,Ord,self,Yes,k,k,1,609
4215,21,right,male,,48,坏人,sqro.bmp,Ord,other,No,m,m,1,708
4215,21,right,male,1,1,坏人,tras.bmp,Bad,self,Yes,k,k,1,948
4215,21,right,male,1,2,好人,cirs.bmp,Good,self,Yes,k,k,1,660
4215,21,right,male,1,3,坏人,tras.bmp,Bad,self,Yes,k,k,1,738
4215,21,right,male,1,4,常人,sqrs.bmp,Ord,self,Yes,k,k,1,750
4215,21,right,male,1,5,好人,sqrs.bmp,Ord,self,No,k,m,0,708
4215,21,right,male,1,6,坏人,sqrs.bmp,Ord,self,No,m,m,1,644
4215,21,right,male,1,7,坏人,ciro.bmp,Good,other,No,m,m,1,886
4215,21,right,male,1,8,好人,ciro.bmp,Good,other,Yes,k,k,1,739
4215,21,right,male,1,9,坏人,trao.bmp,Bad,other,Yes,m,k,0,549
4215,21,right,male,1,10,常人,ciro.bmp,Good,other,No,k,m,0,523
4215,21,right,male,1,11,坏人,trao.bmp,Bad,other,Yes,m,k,0,709
4215,21,right,male,1,12,坏人,cirs.bmp,Good,self,No,k,m,0,867
4215,21,right,male,1,13,常人,sqro.bmp,Ord,other,Yes,k,k,1,690
4215,21,right,male,1,14,好人,sqro.bmp,Ord,other,No,m,m,1,724
4215,21,right,male,1,15,好人,trao.bmp,Bad,other,No,k,m,0,962
4215,21,right,male,1,16,好人,ciro.bmp,Good,other,Yes,k,k,1,572
4215,21,right,male,1,17,常人,sqro.bmp,Ord,other,Yes,k,k,1,906
4215,21,right,male,1,18,好人,cirs.bmp,Good,self,Yes,k,k,1,580
4215,21,right,male,1,19,常人,cirs.bmp,Good,self,No,m,m,1,1007
4215,21,right,male,1,20,常人,sqrs.bmp,Ord,self,Yes,k,k,1,1049
4215,21,right,male,1,21,坏人,sqro.bmp,Ord,other,No,m,m,1,623
4215,21,right,male,1,22,常人,trao.bmp,Bad,other,No,m,m,1,863
4215,21,right,male,1,23,常人,tras.bmp,Bad,self,No,m,m,1,839
4215,21,right,male,1,24,好人,tras.bmp,Bad,self,No,m,m,1,749
4215,21,right,male,1,25,好人,sqro.bmp,Ord,other,No,m,m,1,719
4215,21,right,male,1,26,常人,trao.bmp,Bad,other,No,m,m,1,762
4215,21,right,male,1,27,好人,sqrs.bmp,Ord,self,No,m,m,1,675
4215,21,right,male,1,28,好人,cirs.bmp,Good,self,Yes,k,k,1,525
4215,21,right,male,1,29,常人,sqro.bmp,Ord,other,Yes,k,k,1,755
4215,21,right,male,1,30,好人,tras.bmp,Bad,self,No,m,m,1,1011
4215,21,right,male,1,31,常人,cirs.bmp,Good,self,No,m,m,1,773
4215,21,right,male,1,32,坏人,trao.bmp,Bad,other,Yes,k,k,1,663
4215,21,right,male,1,33,常人,sqro.bmp,Ord,other,Yes,k,k,1,746
4215,21,right,male,1,34,坏人,sqrs.bmp,Ord,self,No,m,m,1,646
4215,21,right,male,1,35,坏人,ciro.bmp,Good,other,No,m,m,1,686
4215,21,right,male,1,36,坏人,cirs.bmp,Good,self,No,m,m,1,646
4215,21,right,male,1,37,常人,tras.bmp,Bad,self,No,m,m,1,572
4215,21,right,male,1,38,坏人,tras.bmp,Bad,self,Yes,k,k,1,666
4215,21,right,male,1,39,好人,ciro.bmp,Good,other,Yes,k,k,1,585
4215,21,right,male,1,40,好人,ciro.bmp,Good,other,Yes,k,k,1,743
4215,21,right,male,1,41,好人,cirs.bmp,Good,self,Yes,k,k,1,563
4215,21,right,male,1,42,坏人,trao.bmp,Bad,other,Yes,m,k,0,529
4215,21,right,male,1,43,坏人,tras.bmp,Bad,self,Yes,k,k,1,701
4215,21,right,male,1,44,常人,sqrs.bmp,Ord,self,Yes,k,k,1,620
4215,21,right,male,1,45,好人,trao.bmp,Bad,other,No,m,m,1,968
4215,21,right,male,1,46,常人,ciro.bmp,Good,other,No,k,m,0,578
4215,21,right,male,1,47,坏人,sqro.bmp,Ord,other,No,m,m,1,910
4215,21,right,male,1,48,常人,sqrs.bmp,Ord,self,Yes,k,k,1,938
4215,21,right,male,1,49,常人,tras.bmp,Bad,self,No,m,m,1,710
4215,21,right,male,1,50,坏人,sqrs.bmp,Ord,self,No,m,m,1,646
4215,21,right,male,1,51,常人,cirs.bmp,Good,self,No,m,m,1,863
4215,21,right,male,1,52,好人,sqro.bmp,Ord,other,No,m,m,1,877
4215,21,right,male,1,53,坏人,trao.bmp,Bad,other,Yes,k,k,1,1095
4215,21,right,male,1,54,常人,sqro.bmp,Ord,other,Yes,k,k,1,954
4215,21,right,male,1,55,坏人,sqro.bmp,Ord,other,No,m,m,1,900
4215,21,right,male,1,56,常人,trao.bmp,Bad,other,No,m,m,1,927
