Subject,Age,Handedness,Sex,BlockList.Sample,SubTrial,Label,Target,Shape,YesNoResp,Target.CRESP,Target.RESP,Target.ACC,Target.RT
1,26,right,male,,1,坏人,H2.bmp,Normal,No,m,,0,0
1,26,right,male,,2,常人,H3.bmp,Normal,Yes,n,,0,0
1,26,right,male,,3,坏人,P3.bmp,Bad,Yes,n,m,0,506
1,26,right,male,,4,坏人,P2.bmp,Bad,Yes,n,,0,0
1,26,right,male,,5,常人,P4.bmp,Bad,No,m,,0,0
1,26,right,male,,6,好人,Trap3.bmp,Good,Yes,n,,0,0
1,26,right,male,,7,坏人,Trap2.bmp,Good,No,m,,0,0
1,26,right,male,,8,常人,H1.bmp,Normal,Yes,n,m,0,928
1,26,right,male,,9,好人,P1.bmp,Bad,No,m,,0,0
1,26,right,male,,10,好人,H4.bmp,Normal,No,m,,0,0
1,26,right,male,,11,好人,Trap1.bmp,Good,Yes,n,,0,0
1,26,right,male,,12,常人,Trap4.bmp,Good,No,m,,0,0
1,26,right,male,,13,好人,H4.bmp,Normal,No,m,,0,0
1,26,right,male,,14,常人,Trap4.bmp,Good,No,m,,0,0
1,26,right,male,,15,常人,H1.bmp,Normal,Yes,n,,0,0
1,26,right,male,,16,坏人,P3.bmp,Bad,Yes,n,,0,0
1,26,right,male,,17,好人,Trap3.bmp,Good,Yes,n,,0,0
1,26,right,male,,18,常人,H3.bmp,Normal,Yes,n,,0,0
1,26,right,male,,19,坏人,H2.bmp,Normal,No,m,n,0,475
1,26,right,male,,20,坏人,P2.bmp,Bad,Yes,n,,0,0
1,26,right,male,,21,常人,P4.bmp,Bad,No,m,,0,0
1,26,right,male,,22,坏人,Trap2.bmp,Good,No,m,m,1,963
1,26,right,male,,23,好人,P1.bmp,Bad,No,m,n,0,830
1,26,right,male,,24,好人,Trap1.bmp,Good,Yes,n,,0,0
1,26,right,male,,25,常人,Trap4.bmp,Good,No,m,m,1,912
1,26,right,male,,26,坏人,P2.bmp,Bad,Yes,n,n,1,811
1,26,right,male,,27,常人,H3.bmp,Normal,Yes,n,,0,0
1,26,right,male,,28,好人,Trap3.bmp,Good,Yes,n,,0,0
1,26,right,male,,29,常人,H1.bmp,Normal,Yes,n,,0,0
1,26,right,male,,30,好人,P1.bmp,Bad,No,m,,0,0
1,26,right,male,,31,坏人,Trap2.bmp,Good,No,m,n,0,786
1,26,right,male,,32,好人,H4.bmp,Normal,No,m,m,1,1000
1,26,right,male,,33,好人,Trap1.bmp,Good,Yes,n,,0,0
1,26,right,male,,34,坏人,H2.bmp,Normal,No,m,n,0,812
1,26,right,male,,35,坏人,P3.bmp,Bad,Yes,n,n,1,781
1,26,right,male,,36,常人,P4.bmp,Bad,No,m,m,1,963
1,26,right,male,,37,好人,P1.bmp,Bad,No,m,m,1,899
1,26,right,male,,38,常人,H1.bmp,Normal,Yes,n,m,0,894
1,26,right,male,,39,坏人,H2.bmp,Normal,No,m,m,1,986
1,26,right,male,,40,坏人,Trap2.bmp,Good,No,m,m,1,792
1,26,right,male,,41,坏人,P3.bmp,Bad,Yes,n,m,0,704
1,26,right,male,,42,常人,H3.bmp,Normal,Yes,n,n,1,830
1,26,right,male,,43,常人,Trap4.bmp,Good,No,m,m,1,631
1,26,right,male,,44,好人,Trap3.bmp,Good,Yes,n,n,1,549
1,26,right,male,,45,好人,H4.bmp,Normal,No,m,m,1,582
1,26,right,male,,46,坏人,P2.bmp,Bad,Yes,n,m,0,804
1,26,right,male,,47,好人,Trap1.bmp,Good,Yes,n,n,1,981
1,26,right,male,,48,常人,P4.bmp,Bad,No,m,n,0,848
1,26,right,male,,49,坏人,Trap2.bmp,Good,No,m,n,0,857
1,26,right,male,,50,好人,H4.bmp,Normal,No,m,,0,0
1,26,right,male,,51,好人,Trap1.bmp,Good,Yes,n,,0,0
1,26,right,male,,52,常人,Trap4.bmp,Good,No,m,n,0,542
1,26,right,male,,53,常人,H3.bmp,Normal,Yes,n,,0,0
1,26,right,male,,54,坏人,P2.bmp,Bad,Yes,n,m,0,648
1,26,right,male,,55,好人,P1.bmp,Bad,No,m,,0,0
1,26,right,male,,56,好人,Trap3.bmp,Good,Yes,n,n,1,537
1,26,right,male,,57,坏人,P3.bmp,Bad,Yes,n,n,1,978
1,26,right,male,,58,常人,H1.bmp,Normal,Yes,n,n,1,878
1,26,right,male,,59,坏人,H2.bmp,Normal,No,m,m,1,902
1,26,right,male,,60,常人,P4.bmp,Bad,No,m,n,0,855
1,26,right,male,,61,常人,Trap4.bmp,Good,No,m,,0,0
1,26,right,male,,62,好人,Trap1.bmp,Good,Yes,n,,0,0
1,26,right,male,,63,好人,H4.bmp,Normal,No,m,m,1,853
1,26,right,male,,64,常人,P4.bmp,Bad,No,m,,0,0
1,26,right,male,,65,坏人,P3.bmp,Bad,Yes,n,,0,0
1,26,right,male,,66,好人,Trap3.bmp,Good,Yes,n,,0,0
1,26,right,male,,67,坏人,Trap2.bmp,Good,No,m,,0,0
1,26,right,male,,68,坏人,H2.bmp,Normal,No,m,n,0,601
1,26,right,male,,69,坏人,P2.bmp,Bad,Yes,n,m,0,762
1,26,right,male,,70,常人,H3.bmp,Normal,Yes,n,n,1,523
1,26,right,male,,71,常人,H1.bmp,Normal,Yes,n,n,1,761
1,26,right,male,,72,好人,P1.bmp,Bad,No,m,,0,0
1,26,right,male,,73,常人,H3.bmp,Normal,Yes,n,m,0,670
1,26,right,male,,74,坏人,Trap2.bmp,Good,No,m,,0,0
1,26,right,male,,75,常人,P4.bmp,Bad,No,m,,0,0
1,26,right,male,,76,好人,P1.bmp,Bad,No,m,,0,0
1,26,right,male,,77,好人,Trap1.bmp,Good,Yes,n,n,1,428
1,26,right,male,,78,坏人,P3.bmp,Bad,Yes,n,n,1,759
1,26,right,male,,79,坏人,H2.bmp,Normal,No,m,m,1,899
1,26,right,male,,80,好人,Trap3.bmp,Good,Yes,n,n,1,571
1,26,right,male,,81,常人,Trap4.bmp,Good,No,m,m,1,761
1,26,right,male,,82,好人,H4.bmp,Normal,No,m,m,1,1023
1,26,right,male,,83,坏人,P2.bmp,Bad,Yes,n,n,1,810
1,26,right,male,,84,常人,H1.bmp,Normal,Yes,n,n,1,643
1,26,right,male,,85,常人,H1.bmp,Normal,Yes,n,n,1,606
1,26,right,male,,86,坏人,P2.bmp,Bad,Yes,n,n,1,681
1,26,right,male,,87,坏人,P3.bmp,Bad,Yes,n,,0,0
1,26,right,male,,88,好人,Trap3.bmp,Good,Yes,n,n,1,528
1,26,right,male,,89,好人,Trap1.bmp,Good,Yes,n,n,1,1046
1,26,right,male,,90,常人,H3.bmp,Normal,Yes,n,n,1,655
1,26,right,male,,91,坏人,Trap2.bmp,Good,No,m,m,1,813
1,26,right,male,,92,常人,Trap4.bmp,Good,No,m,m,1,617
1,26,right,male,,93,坏人,H2.bmp,Normal,No,m,m,1,834
1,26,right,male,,94,好人,P1.bmp,Bad,No,m,m,1,733
1,26,right,male,,95,常人,P4.bmp,Bad,No,m,m,1,830
1,26,right,male,,96,好人,H4.bmp,Normal,No,m,,0,0
1,26,right,male,1,1,坏人,P4.bmp,Bad,Yes,n,m,0,732
1,26,right,male,1,2,好人,Trap1.bmp,Good,Yes,n,n,1,514
1,26,right,male,1,3,坏人,Trap3.bmp,Good,No,m,m,1,854
1,26,right,male,1,4,常人,H2.bmp,Normal,Yes,n,n,1,598
1,26,right,male,1,5,常人,H4.bmp,Normal,Yes,n,n,1,437
1,26,right,male,1,6,常人,H3.bmp,Normal,Yes,n,n,1,467
1,26,right,male,1,7,坏人,P2.bmp,Bad,Yes,n,m,0,739
1,26,right,male,1,8,常人,H3.bmp,Normal,Yes,n,n,1,484
1,26,right,male,1,9,坏人,P4.bmp,Bad,Yes,n,n,1,528
1,26,right,male,1,10,常人,Trap2.bmp,Good,No,m,m,1,553
1,26,right,male,1,11,坏人,Trap2.bmp,Good,No,m,m,1,617
1,26,right,male,1,12,好人,Trap4.bmp,Good,Yes,n,n,1,533
1,26,right,male,1,13,坏人,P2.bmp,Bad,Yes,n,n,1,683
1,26,right,male,1,14,好人,H1.bmp,Normal,No,m,m,1,649
1,26,right,male,1,15,常人,H2.bmp,Normal,Yes,n,n,1,631
1,26,right,male,1,16,好人,Trap4.bmp,Good,Yes,n,n,1,590
1,26,right,male,1,17,好人,Trap1.bmp,Good,Yes,n,n,1,516
1,26,right,male,1,18,坏人,P1.bmp,Bad,Yes,n,m,0,570
1,26,right,male,1,19,常人,H1.bmp,Normal,Yes,n,n,1,643
1,26,right,male,1,20,好人,H1.bmp,Normal,No,m,m,1,539
1,26,right,male,1,21,常人,P4.bmp,Bad,No,m,n,0,679
1,26,right,male,1,22,坏人,H3.bmp,Normal,No,m,m,1,557
1,26,right,male,1,23,常人,H4.bmp,Normal,Yes,n,n,1,560
1,26,right,male,1,24,坏人,Trap1.bmp,Good,No,m,m,1,659
1,26,right,male,1,25,常人,P4.bmp,Bad,No,m,n,0,596
1,26,right,male,1,26,好人,Trap2.bmp,Good,Yes,n,n,1,456
1,26,right,male,1,27,坏人,P3.bmp,Bad,Yes,n,n,1,536
1,26,right,male,1,28,常人,H1.bmp,Normal,Yes,n,n,1,487
1,26,right,male,1,29,坏人,Trap3.bmp,Good,No,m,m,1,511
1,26,right,male,1,30,坏人,P4.bmp,Bad,Yes,n,n,1,507
1,26,right,male,1,31,坏人,P2.bmp,Bad,Yes,n,m,0,614
1,26,right,male,1,32,常人,H3.bmp,Normal,Yes,n,n,1,434
1,26,right,male,1,33,好人,P4.bmp,Bad,No,m,m,1,589
1,26,right,male,1,34,坏人,Trap4.bmp,Good,No,m,n,0,1011
1,26,right,male,1,35,好人,P1.bmp,Bad,No,m,m,1,519
1,26,right,male,1,36,好人,H4.bmp,Normal,No,m,m,1,634
1,26,right,male,1,37,常人,Trap1.bmp,Good,No,m,m,1,616
1,26,right,male,1,38,坏人,H4.bmp,Normal,No,m,m,1,694
1,26,right,male,1,39,好人,Trap2.bmp,Good,Yes,n,n,1,610
1,26,right,male,1,40,坏人,P1.bmp,Bad,Yes,n,n,1,461
1,26,right,male,1,41,坏人,P3.bmp,Bad,Yes,n,n,1,540
1,26,right,male,1,42,好人,H2.bmp,Normal,No,m,m,1,554
1,26,right,male,1,43,常人,H4.bmp,Normal,Yes,n,n,1,648
1,26,right,male,1,44,常人,P3.bmp,Bad,No,m,m,1,566
1,26,right,male,1,45,好人,Trap3.bmp,Good,Yes,n,n,1,655
1,26,right,male,1,46,好人,H3.bmp,Normal,No,m,m,1,504
1,26,right,male,1,47,好人,P3.bmp,Bad,No,m,m,1,634
1,26,right,male,1,48,好人,Trap2.bmp,Good,Yes,n,n,1,513
1,26,right,male,1,49,坏人,H2.bmp,Normal,No,m,m,1,916
1,26,right,male,1,50,好人,Trap1.bmp,Good,Yes,n,m,0,509
1,26,right,male,1,51,常人,Trap4.bmp,Good,No,m,m,1,592
1,26,right,male,1,52,常人,P2.bmp,Bad,No,m,n,0,502
1,26,right,male,1,53,常人,P1.bmp,Bad,No,m,m,1,466
1,26,right,male,1,54,好人,Trap3.bmp,Good,Yes,n,n,1,608
1,26,right,male,1,55,好人,P2.bmp,Bad,No,m,m,1,505
1,26,right,male,1,56,坏人,H2.bmp,Normal,No,m,n,0,602
1,26,right,male,1,57,好人,P1.bmp,Bad,No,m,m,1,664
1,26,right,male,1,58,坏人,H1.bmp,Normal,No,m,m,1,524
1,26,right,male,1,59,常人,Trap3.bmp,Good,No,m,m,1,951
1,26,right,male,1,60,常人,Trap4.bmp,Good,No,m,m,1,784
1,26,right,male,2,1,好人,Trap2.bmp,Good,Yes,n,n,1,646
1,26,right,male,2,2,常人,P4.bmp,Bad,No,m,m,1,812
1,26,right,male,2,3,常人,H3.bmp,Normal,Yes,n,n,1,567
1,26,right,male,2,4,好人,Trap1.bmp,Good,Yes,n,n,1,531
1,26,right,male,2,5,常人,P2.bmp,Bad,No,m,m,1,659
1,26,right,male,2,6,好人,Trap4.bmp,Good,Yes,n,n,1,510
1,26,right,male,2,7,坏人,Trap2.bmp,Good,No,m,m,1,508
1,26,right,male,2,8,好人,Trap2.bmp,Good,Yes,n,n,1,442
1,26,right,male,2,9,好人,Trap1.bmp,Good,Yes,n,n,1,891
1,26,right,male,2,10,好人,Trap2.bmp,Good,Yes,n,n,1,457
1,26,right,male,2,11,常人,H2.bmp,Normal,Yes,n,n,1,538
1,26,right,male,2,12,好人,P4.bmp,Bad,No,m,m,1,686
1,26,right,male,2,13,坏人,Trap3.bmp,Good,No,m,m,1,761
1,26,right,male,2,14,常人,H3.bmp,Normal,Yes,n,n,1,581
1,26,right,male,2,15,常人,Trap4.bmp,Good,No,m,m,1,531
1,26,right,male,2,16,常人,P1.bmp,Bad,No,m,m,1,625
1,26,right,male,2,17,好人,Trap4.bmp,Good,Yes,n,n,1,458
1,26,right,male,2,18,坏人,P2.bmp,Bad,Yes,n,n,1,690
1,26,right,male,2,19,常人,H2.bmp,Normal,Yes,n,m,0,451
1,26,right,male,2,20,坏人,P3.bmp,Bad,Yes,n,m,0,604
1,26,right,male,2,21,常人,H1.bmp,Normal,Yes,n,n,1,498
1,26,right,male,2,22,坏人,P3.bmp,Bad,Yes,n,n,1,486
1,26,right,male,2,23,坏人,P4.bmp,Bad,Yes,n,n,1,420
1,26,right,male,2,24,好人,P1.bmp,Bad,No,m,m,1,506
1,26,right,male,2,25,坏人,P4.bmp,Bad,Yes,n,n,1,435
1,26,right,male,2,26,常人,H1.bmp,Normal,Yes,n,m,0,494
1,26,right,male,2,27,坏人,P2.bmp,Bad,Yes,n,n,1,525
1,26,right,male,2,28,好人,H1.bmp,Normal,No,m,m,1,499
1,26,right,male,2,29,常人,Trap2.bmp,Good,No,m,n,0,869
1,26,right,male,2,30,坏人,P1.bmp,Bad,Yes,n,n,1,497
1,26,right,male,2,31,常人,P3.bmp,Bad,No,m,m,1,634
1,26,right,male,2,32,好人,H2.bmp,Normal,No,m,m,1,552
1,26,right,male,2,33,常人,Trap3.bmp,Good,No,m,m,1,806
1,26,right,male,2,34,坏人,H4.bmp,Normal,No,m,m,1,524
1,26,right,male,2,35,常人,H3.bmp,Normal,Yes,n,m,0,536
1,26,right,male,2,36,坏人,P4.bmp,Bad,Yes,n,n,1,576
1,26,right,male,2,37,坏人,H1.bmp,Normal,No,m,n,0,743
1,26,right,male,2,38,坏人,H2.bmp,Normal,No,m,m,1,543
1,26,right,male,2,39,常人,H4.bmp,Normal,Yes,n,n,1,592
1,26,right,male,2,40,常人,Trap4.bmp,Good,No,m,m,1,492
1,26,right,male,2,41,常人,P4.bmp,Bad,No,m,m,1,575
1,26,right,male,2,42,坏人,Trap3.bmp,Good,No,m,n,0,541
1,26,right,male,2,43,常人,H4.bmp,Normal,Yes,n,n,1,534
1,26,right,male,2,44,好人,P3.bmp,Bad,No,m,m,1,490
1,26,right,male,2,45,坏人,Trap1.bmp,Good,No,m,m,1,752
1,26,right,male,2,46,坏人,Trap4.bmp,Good,No,m,m,1,843
1,26,right,male,2,47,坏人,H2.bmp,Normal,No,m,m,1,671
1,26,right,male,2,48,好人,P2.bmp,Bad,No,m,m,1,517
1,26,right,male,2,49,好人,P1.bmp,Bad,No,m,m,1,515
1,26,right,male,2,50,坏人,P2.bmp,Bad,Yes,n,n,1,812
1,26,right,male,2,51,坏人,P1.bmp,Bad,Yes,n,n,1,554
1,26,right,male,2,52,好人,H4.bmp,Normal,No,m,m,1,528
1,26,right,male,2,53,常人,Trap1.bmp,Good,No,m,m,1,621
1,26,right,male,2,54,常人,H4.bmp,Normal,Yes,n,m,0,806
1,26,right,male,2,55,好人,H3.bmp,Normal,No,m,m,1,439
1,26,right,male,2,56,坏人,H3.bmp,Normal,No,m,m,1,477
1,26,right,male,2,57,好人,Trap3.bmp,Good,Yes,n,m,0,388
1,26,right,male,2,58,好人,Trap1.bmp,Good,Yes,n,n,1,500
1,26,right,male,2,59,好人,H1.bmp,Normal,No,m,m,1,477
1,26,right,male,2,60,好人,Trap3.bmp,Good,Yes,n,m,0,377
1,26,right,male,3,1,坏人,P1.bmp,Bad,Yes,n,n,1,656
1,26,right,male,3,2,常人,P1.bmp,Bad,No,m,m,1,550
1,26,right,male,3,3,常人,Trap4.bmp,Good,No,m,m,1,745
1,26,right,male,3,4,坏人,Trap3.bmp,Good,No,m,m,1,845
1,26,right,male,3,5,坏人,H3.bmp,Normal,No,m,m,1,574
1,26,right,male,3,6,常人,P4.bmp,Bad,No,m,m,1,537
1,26,right,male,3,7,常人,H4.bmp,Normal,Yes,n,n,1,623
1,26,right,male,3,8,常人,P4.bmp,Bad,No,m,m,1,510
1,26,right,male,3,9,常人,H2.bmp,Normal,Yes,n,m,0,515
1,26,right,male,3,10,坏人,Trap3.bmp,Good,No,m,m,1,734
1,26,right,male,3,11,好人,Trap3.bmp,Good,Yes,n,n,1,508
1,26,right,male,3,12,好人,P4.bmp,Bad,No,m,m,1,640
1,26,right,male,3,13,坏人,Trap1.bmp,Good,No,m,m,1,635
1,26,right,male,3,14,常人,H3.bmp,Normal,Yes,n,n,1,580
1,26,right,male,3,15,好人,H2.bmp,Normal,No,m,m,1,581
1,26,right,male,3,16,坏人,P2.bmp,Bad,Yes,n,n,1,638
1,26,right,male,3,17,好人,Trap1.bmp,Good,Yes,n,n,1,684
1,26,right,male,3,18,坏人,P4.bmp,Bad,Yes,n,n,1,666
1,26,right,male,3,19,坏人,H1.bmp,Normal,No,m,m,1,731
1,26,right,male,3,20,好人,P1.bmp,Bad,No,m,m,1,497
1,26,right,male,3,21,好人,H1.bmp,Normal,No,m,m,1,418
1,26,right,male,3,22,常人,H3.bmp,Normal,Yes,n,m,0,598
1,26,right,male,3,23,好人,P3.bmp,Bad,No,m,m,1,508
1,26,right,male,3,24,常人,P3.bmp,Bad,No,m,m,1,618
1,26,right,male,3,25,坏人,P3.bmp,Bad,Yes,n,n,1,883
1,26,right,male,3,26,好人,Trap1.bmp,Good,Yes,n,n,1,740
1,26,right,male,3,27,坏人,H4.bmp,Normal,No,m,m,1,684
1,26,right,male,3,28,坏人,Trap4.bmp,Good,No,m,m,1,616
1,26,right,male,3,29,好人,Trap2.bmp,Good,Yes,n,n,1,718
1,26,right,male,3,30,好人,H1.bmp,Normal,No,m,m,1,900
1,26,right,male,3,31,常人,P2.bmp,Bad,No,m,m,1,544
1,26,right,male,3,32,坏人,Trap2.bmp,Good,No,m,n,0,611
1,26,right,male,3,33,常人,H1.bmp,Normal,Yes,n,n,1,571
1,26,right,male,3,34,好人,Trap1.bmp,Good,Yes,n,n,1,508
1,26,right,male,3,35,好人,H4.bmp,Normal,No,m,m,1,463
1,26,right,male,3,36,好人,H3.bmp,Normal,No,m,m,1,499
1,26,right,male,3,37,常人,H1.bmp,Normal,Yes,n,n,1,540
1,26,right,male,3,38,常人,H3.bmp,Normal,Yes,n,n,1,452
1,26,right,male,3,39,好人,Trap4.bmp,Good,Yes,n,n,1,485
1,26,right,male,3,40,好人,P1.bmp,Bad,No,m,m,1,521
1,26,right,male,3,41,常人,Trap1.bmp,Good,No,m,m,1,698
1,26,right,male,3,42,常人,H4.bmp,Normal,Yes,n,n,1,504
1,26,right,male,3,43,好人,Trap3.bmp,Good,Yes,n,n,1,550
1,26,right,male,3,44,坏人,P1.bmp,Bad,Yes,n,n,1,591
1,26,right,male,3,45,常人,Trap3.bmp,Good,No,m,m,1,538
1,26,right,male,3,46,常人,H4.bmp,Normal,Yes,n,n,1,603
1,26,right,male,3,47,常人,Trap2.bmp,Good,No,m,m,1,623
1,26,right,male,3,48,坏人,P4.bmp,Bad,Yes,n,n,1,605
1,26,right,male,3,49,好人,Trap4.bmp,Good,Yes,n,n,1,493
1,26,right,male,3,50,常人,H2.bmp,Normal,Yes,n,n,1,553
1,26,right,male,3,51,坏人,H2.bmp,Normal,No,m,m,1,522
1,26,right,male,3,52,坏人,P3.bmp,Bad,Yes,n,n,1,533
1,26,right,male,3,53,坏人,P4.bmp,Bad,Yes,n,m,0,1054
1,26,right,male,3,54,坏人,P2.bmp,Bad,Yes,n,n,1,450
1,26,right,male,3,55,常人,Trap4.bmp,Good,No,m,m,1,469
1,26,right,male,3,56,好人,P2.bmp,Bad,No,m,n,0,501
1,26,right,male,3,57,坏人,P2.bmp,Bad,Yes,n,n,1,521
1,26,right,male,3,58,好人,Trap2.bmp,Good,Yes,n,n,1,615
1,26,right,male,3,59,好人,Trap2.bmp,Good,Yes,n,n,1,450
1,26,right,male,3,60,坏人,H2.bmp,Normal,No,m,m,1,715
1,26,right,male,4,1,好人,Trap4.bmp,Good,Yes,n,n,1,514
1,26,right,male,4,2,好人,Trap2.bmp,Good,Yes,n,n,1,533
1,26,right,male,4,3,好人,Trap1.bmp,Good,Yes,n,n,1,481
1,26,right,male,4,4,好人,P4.bmp,Bad,No,m,m,1,527
1,26,right,male,4,5,好人,Trap3.bmp,Good,Yes,n,n,1,605
1,26,right,male,4,6,坏人,P1.bmp,Bad,Yes,n,n,1,678
1,26,right,male,4,7,好人,Trap1.bmp,Good,Yes,n,n,1,484
1,26,right,male,4,8,坏人,P1.bmp,Bad,Yes,n,n,1,501
1,26,right,male,4,9,常人,H3.bmp,Normal,Yes,n,n,1,648
1,26,right,male,4,10,好人,H1.bmp,Normal,No,m,m,1,585
1,26,right,male,4,11,常人,H3.bmp,Normal,Yes,n,n,1,525
1,26,right,male,4,12,好人,Trap4.bmp,Good,Yes,n,n,1,387
1,26,right,male,4,13,坏人,P3.bmp,Bad,Yes,n,n,1,444
1,26,right,male,4,14,坏人,P4.bmp,Bad,Yes,n,n,1,453
1,26,right,male,4,15,坏人,P2.bmp,Bad,Yes,n,,0,0
1,26,right,male,4,16,坏人,Trap4.bmp,Good,No,m,m,1,573
1,26,right,male,4,17,常人,P4.bmp,Bad,No,m,m,1,441
1,26,right,male,4,18,坏人,Trap3.bmp,Good,No,m,n,0,564
1,26,right,male,4,19,坏人,P4.bmp,Bad,Yes,n,n,1,813
1,26,right,male,4,20,常人,P2.bmp,Bad,No,m,m,1,649
1,26,right,male,4,21,常人,H3.bmp,Normal,Yes,n,n,1,535
1,26,right,male,4,22,坏人,P3.bmp,Bad,Yes,n,m,0,531
1,26,right,male,4,23,坏人,P2.bmp,Bad,Yes,n,n,1,585
1,26,right,male,4,24,坏人,H1.bmp,Normal,No,m,m,1,642
1,26,right,male,4,25,坏人,P2.bmp,Bad,Yes,n,n,1,642
1,26,right,male,4,26,常人,H4.bmp,Normal,Yes,n,n,1,603
1,26,right,male,4,27,好人,H3.bmp,Normal,No,m,m,1,543
1,26,right,male,4,28,常人,Trap4.bmp,Good,No,m,m,1,741
1,26,right,male,4,29,坏人,Trap2.bmp,Good,No,m,m,1,582
1,26,right,male,4,30,常人,H1.bmp,Normal,Yes,n,m,0,607
1,26,right,male,4,31,坏人,Trap1.bmp,Good,No,m,n,0,535
1,26,right,male,4,32,好人,P3.bmp,Bad,No,m,m,1,488
1,26,right,male,4,33,常人,H2.bmp,Normal,Yes,n,n,1,796
1,26,right,male,4,34,常人,H1.bmp,Normal,Yes,n,n,1,493
1,26,right,male,4,35,坏人,H2.bmp,Normal,No,m,m,1,555
1,26,right,male,4,36,常人,Trap4.bmp,Good,No,m,m,1,801
1,26,right,male,4,37,好人,Trap2.bmp,Good,Yes,n,n,1,485
1,26,right,male,4,38,好人,H4.bmp,Normal,No,m,m,1,483
1,26,right,male,4,39,坏人,H4.bmp,Normal,No,m,m,1,573
1,26,right,male,4,40,好人,P1.bmp,Bad,No,m,m,1,441
1,26,right,male,4,41,好人,H2.bmp,Normal,No,m,m,1,540
1,26,right,male,4,42,坏人,H2.bmp,Normal,No,m,m,1,544
1,26,right,male,4,43,好人,Trap1.bmp,Good,Yes,n,n,1,550
1,26,right,male,4,44,常人,Trap2.bmp,Good,No,m,m,1,796
1,26,right,male,4,45,好人,Trap3.bmp,Good,Yes,n,n,1,546
1,26,right,male,4,46,常人,P3.bmp,Bad,No,m,m,1,688
1,26,right,male,4,47,好人,H1.bmp,Normal,No,m,m,1,564
1,26,right,male,4,48,常人,H2.bmp,Normal,Yes,n,m,0,549
1,26,right,male,4,49,好人,Trap2.bmp,Good,Yes,n,n,1,483
1,26,right,male,4,50,常人,Trap3.bmp,Good,No,m,m,1,540
1,26,right,male,4,51,坏人,H3.bmp,Normal,No,m,m,1,970
1,26,right,male,4,52,常人,H4.bmp,Normal,Yes,n,m,0,696
1,26,right,male,4,53,坏人,Trap3.bmp,Good,No,m,n,0,657
1,26,right,male,4,54,常人,Trap1.bmp,Good,No,m,m,1,676
1,26,right,male,4,55,常人,P1.bmp,Bad,No,m,m,1,669
1,26,right,male,4,56,常人,P4.bmp,Bad,No,m,m,1,590
1,26,right,male,4,57,好人,P2.bmp,Bad,No,m,m,1,482
1,26,right,male,4,58,坏人,P4.bmp,Bad,Yes,n,n,1,802
1,26,right,male,4,59,好人,P1.bmp,Bad,No,m,m,1,491
1,26,right,male,4,60,常人,H4.bmp,Normal,Yes,n,n,1,626
1,26,right,male,5,1,坏人,Trap1.bmp,Good,No,m,m,1,515
1,26,right,male,5,2,好人,Trap1.bmp,Good,Yes,n,n,1,625
1,26,right,male,5,3,坏人,Trap3.bmp,Good,No,m,m,1,498
1,26,right,male,5,4,好人,Trap3.bmp,Good,Yes,n,m,0,509
1,26,right,male,5,5,常人,H4.bmp,Normal,Yes,n,n,1,849
1,26,right,male,5,6,好人,H1.bmp,Normal,No,m,m,1,543
1,26,right,male,5,7,坏人,P2.bmp,Bad,Yes,n,n,1,629
1,26,right,male,5,8,常人,H2.bmp,Normal,Yes,n,n,1,670
1,26,right,male,5,9,好人,Trap4.bmp,Good,Yes,n,n,1,553
1,26,right,male,5,10,常人,H3.bmp,Normal,Yes,n,n,1,647
1,26,right,male,5,11,好人,P2.bmp,Bad,No,m,m,1,752
1,26,right,male,5,12,好人,P1.bmp,Bad,No,m,m,1,534
1,26,right,male,5,13,坏人,P1.bmp,Bad,Yes,n,n,1,538
1,26,right,male,5,14,常人,Trap3.bmp,Good,No,m,m,1,613
1,26,right,male,5,15,坏人,P4.bmp,Bad,Yes,n,n,1,675
1,26,right,male,5,16,坏人,P2.bmp,Bad,Yes,n,n,1,506
1,26,right,male,5,17,常人,Trap2.bmp,Good,No,m,m,1,538
1,26,right,male,5,18,常人,P4.bmp,Bad,No,m,m,1,494
1,26,right,male,5,19,坏人,H1.bmp,Normal,No,m,m,1,612
1,26,right,male,5,20,坏人,Trap3.bmp,Good,No,m,m,1,1046
1,26,right,male,5,21,好人,Trap3.bmp,Good,Yes,n,n,1,466
1,26,right,male,5,22,坏人,P1.bmp,Bad,Yes,n,n,1,659
1,26,right,male,5,23,坏人,H2.bmp,Normal,No,m,m,1,628
1,26,right,male,5,24,坏人,P4.bmp,Bad,Yes,n,n,1,508
1,26,right,male,5,25,好人,Trap2.bmp,Good,Yes,n,n,1,613
1,26,right,male,5,26,坏人,H2.bmp,Normal,No,m,m,1,601
1,26,right,male,5,27,常人,P2.bmp,Bad,No,m,m,1,546
1,26,right,male,5,28,常人,P3.bmp,Bad,No,m,m,1,504
1,26,right,male,5,29,常人,H4.bmp,Normal,Yes,n,n,1,611
1,26,right,male,5,30,常人,H2.bmp,Normal,Yes,n,n,1,535
1,26,right,male,5,31,好人,H3.bmp,Normal,No,m,m,1,477
1,26,right,male,5,32,好人,Trap1.bmp,Good,Yes,n,n,1,742
1,26,right,male,5,33,常人,P4.bmp,Bad,No,m,m,1,660
1,26,right,male,5,34,好人,Trap1.bmp,Good,Yes,n,m,0,586
1,26,right,male,5,35,坏人,H4.bmp,Normal,No,m,n,0,579
1,26,right,male,5,36,坏人,Trap4.bmp,Good,No,m,m,1,601
1,26,right,male,5,37,常人,Trap4.bmp,Good,No,m,m,1,468
1,26,right,male,5,38,好人,H4.bmp,Normal,No,m,m,1,509
1,26,right,male,5,39,常人,H4.bmp,Normal,Yes,n,n,1,507
1,26,right,male,5,40,好人,Trap4.bmp,Good,Yes,n,n,1,524
1,26,right,male,5,41,常人,H3.bmp,Normal,Yes,n,n,1,701
1,26,right,male,5,42,坏人,P3.bmp,Bad,Yes,n,n,1,646
1,26,right,male,5,43,常人,Trap4.bmp,Good,No,m,m,1,542
1,26,right,male,5,44,好人,P1.bmp,Bad,No,m,m,1,566
1,26,right,male,5,45,好人,H2.bmp,Normal,No,m,m,1,655
1,26,right,male,5,46,常人,H1.bmp,Normal,Yes,n,n,1,590
1,26,right,male,5,47,坏人,P2.bmp,Bad,Yes,n,n,1,537
1,26,right,male,5,48,好人,P3.bmp,Bad,No,m,m,1,543
1,26,right,male,5,49,坏人,P4.bmp,Bad,Yes,n,n,1,579
1,26,right,male,5,50,坏人,H3.bmp,Normal,No,m,m,1,494
1,26,right,male,5,51,坏人,P3.bmp,Bad,Yes,n,m,0,719
1,26,right,male,5,52,好人,Trap2.bmp,Good,Yes,n,n,1,635
1,26,right,male,5,53,坏人,Trap2.bmp,Good,No,m,m,1,606
1,26,right,male,5,54,好人,P4.bmp,Bad,No,m,m,1,455
1,26,right,male,5,55,好人,H1.bmp,Normal,No,m,m,1,485
1,26,right,male,5,56,常人,P1.bmp,Bad,No,m,n,0,542
1,26,right,male,5,57,常人,H3.bmp,Normal,Yes,n,n,1,463
1,26,right,male,5,58,好人,Trap2.bmp,Good,Yes,n,n,1,602
1,26,right,male,5,59,常人,H1.bmp,Normal,Yes,n,n,1,592
1,26,right,male,5,60,常人,Trap1.bmp,Good,No,m,m,1,529
1,26,right,male,6,1,坏人,P4.bmp,Bad,Yes,n,n,1,596
1,26,right,male,6,2,常人,H3.bmp,Normal,Yes,n,n,1,503
1,26,right,male,6,3,好人,H4.bmp,Normal,No,m,m,1,509
1,26,right,male,6,4,好人,Trap1.bmp,Good,Yes,n,n,1,558
1,26,right,male,6,5,好人,Trap1.bmp,Good,Yes,n,n,1,532
1,26,right,male,6,6,坏人,Trap2.bmp,Good,No,m,m,1,712
1,26,right,male,6,7,常人,H3.bmp,Normal,Yes,n,n,1,569
1,26,right,male,6,8,坏人,Trap4.bmp,Good,No,m,m,1,746
1,26,right,male,6,9,常人,H4.bmp,Normal,Yes,n,n,1,531
1,26,right,male,6,10,坏人,Trap3.bmp,Good,No,m,m,1,542
1,26,right,male,6,11,坏人,P3.bmp,Bad,Yes,n,n,1,719
1,26,right,male,6,12,常人,P1.bmp,Bad,No,m,m,1,645
1,26,right,male,6,13,坏人,H2.bmp,Normal,No,m,m,1,643
1,26,right,male,6,14,常人,Trap4.bmp,Good,No,m,m,1,556
1,26,right,male,6,15,坏人,P2.bmp,Bad,Yes,n,n,1,706
1,26,right,male,6,16,坏人,P3.bmp,Bad,Yes,n,n,1,582
1,26,right,male,6,17,常人,H1.bmp,Normal,Yes,n,n,1,636
1,26,right,male,6,18,好人,P2.bmp,Bad,No,m,m,1,509
1,26,right,male,6,19,好人,Trap1.bmp,Good,Yes,n,n,1,574
1,26,right,male,6,20,坏人,P2.bmp,Bad,Yes,n,n,1,545
1,26,right,male,6,21,坏人,Trap3.bmp,Good,No,m,m,1,574
1,26,right,male,6,22,好人,Trap4.bmp,Good,Yes,n,n,1,514
1,26,right,male,6,23,常人,P4.bmp,Bad,No,m,m,1,635
1,26,right,male,6,24,坏人,P4.bmp,Bad,Yes,n,n,1,555
1,26,right,male,6,25,好人,Trap3.bmp,Good,Yes,n,n,1,586
1,26,right,male,6,26,常人,H4.bmp,Normal,Yes,n,n,1,600
1,26,right,male,6,27,好人,P3.bmp,Bad,No,m,m,1,558
1,26,right,male,6,28,好人,Trap2.bmp,Good,Yes,n,n,1,687
1,26,right,male,6,29,好人,Trap3.bmp,Good,Yes,n,n,1,557
1,26,right,male,6,30,坏人,Trap1.bmp,Good,No,m,m,1,603
1,26,right,male,6,31,好人,P1.bmp,Bad,No,m,m,1,543
1,26,right,male,6,32,坏人,P2.bmp,Bad,Yes,n,n,1,517
1,26,right,male,6,33,坏人,H1.bmp,Normal,No,m,m,1,624
1,26,right,male,6,34,常人,Trap2.bmp,Good,No,m,m,1,657
1,26,right,male,6,35,常人,P4.bmp,Bad,No,m,m,1,645
1,26,right,male,6,36,常人,Trap1.bmp,Good,No,m,m,1,504
1,26,right,male,6,37,常人,H3.bmp,Normal,Yes,n,n,1,580
1,26,right,male,6,38,坏人,H2.bmp,Normal,No,m,m,1,618
1,26,right,male,6,39,好人,P4.bmp,Bad,No,m,m,1,499
1,26,right,male,6,40,坏人,H3.bmp,Normal,No,m,m,1,548
1,26,right,male,6,41,坏人,P1.bmp,Bad,Yes,n,n,1,532
1,26,right,male,6,42,坏人,P1.bmp,Bad,Yes,n,n,1,491
1,26,right,male,6,43,常人,P2.bmp,Bad,No,m,m,1,489
1,26,right,male,6,44,好人,H2.bmp,Normal,No,m,m,1,398
1,26,right,male,6,45,好人,Trap2.bmp,Good,Yes,n,n,1,588
1,26,right,male,6,46,好人,H1.bmp,Normal,No,m,m,1,642
1,26,right,male,6,47,常人,Trap3.bmp,Good,No,m,m,1,630
1,26,right,male,6,48,好人,H3.bmp,Normal,No,m,m,1,519
1,26,right,male,6,49,好人,Trap2.bmp,Good,Yes,n,n,1,565
1,26,right,male,6,50,好人,Trap4.bmp,Good,Yes,n,n,1,550
1,26,right,male,6,51,坏人,H4.bmp,Normal,No,m,m,1,609
1,26,right,male,6,52,常人,P3.bmp,Bad,No,m,m,1,506
1,26,right,male,6,53,常人,Trap4.bmp,Good,No,m,m,1,555
1,26,right,male,6,54,常人,H4.bmp,Normal,Yes,n,n,1,553
1,26,right,male,6,55,常人,H1.bmp,Normal,Yes,n,n,1,511
1,26,right,male,6,56,常人,H2.bmp,Normal,Yes,n,n,1,483
1,26,right,male,6,57,常人,H2.bmp,Normal,Yes,n,n,1,502
1,26,right,male,6,58,好人,H1.bmp,Normal,No,m,m,1,585
1,26,right,male,6,59,好人,P1.bmp,Bad,No,m,m,1,517
1,26,right,male,6,60,坏人,P4.bmp,Bad,Yes,n,n,1,726
10,24,right,female,,1,好人,P1.bmp,Bad,No,n,,0,0
10,24,right,female,,2,常人,H1.bmp,Normal,Yes,m,,0,0
10,24,right,female,,3,常人,Trap4.bmp,Good,No,n,m,0,175
10,24,right,female,,4,坏人,H2.bmp,Normal,No,n,,0,0
10,24,right,female,,5,常人,P4.bmp,Bad,No,n,,0,0
10,24,right,female,,6,好人,H4.bmp,Normal,No,n,,0,0
10,24,right,female,,7,好人,Trap1.bmp,Good,Yes,m,m,1,426
10,24,right,female,,8,坏人,Trap2.bmp,Good,No,n,m,0,686
10,24,right,female,,9,坏人,P3.bmp,Bad,Yes,m,,0,0
10,24,right,female,,10,坏人,P2.bmp,Bad,Yes,m,n,0,839
10,24,right,female,,11,常人,H3.bmp,Normal,Yes,m,m,1,616
10,24,right,female,,12,好人,Trap3.bmp,Good,Yes,m,n,0,632
10,24,right,female,,13,好人,Trap1.bmp,Good,Yes,m,n,0,922
10,24,right,female,,14,常人,H1.bmp,Normal,Yes,m,n,0,528
10,24,right,female,,15,好人,H4.bmp,Normal,No,n,m,0,627
10,24,right,female,,16,常人,H3.bmp,Normal,Yes,m,m,1,551
10,24,right,female,,17,好人,Trap3.bmp,Good,Yes,m,n,0,768
10,24,right,female,,18,坏人,P3.bmp,Bad,Yes,m,m,1,448
10,24,right,female,,19,好人,P1.bmp,Bad,No,n,n,1,956
10,24,right,female,,20,常人,Trap4.bmp,Good,No,n,m,0,661
10,24,right,female,,21,常人,P4.bmp,Bad,No,n,n,1,859
10,24,right,female,,22,坏人,H2.bmp,Normal,No,n,m,0,913
10,24,right,female,,23,坏人,Trap2.bmp,Good,No,n,m,0,1079
10,24,right,female,,24,坏人,P2.bmp,Bad,Yes,m,n,0,723
10,24,right,female,,25,常人,Trap4.bmp,Good,No,n,m,0,696
10,24,right,female,,26,坏人,Trap2.bmp,Good,No,n,n,1,942
10,24,right,female,,27,常人,H1.bmp,Normal,Yes,m,n,0,799
10,24,right,female,,28,好人,P1.bmp,Bad,No,n,n,1,997
10,24,right,female,,29,坏人,P3.bmp,Bad,Yes,m,n,0,618
10,24,right,female,,30,坏人,H2.bmp,Normal,No,n,m,0,187
10,24,right,female,,31,常人,P4.bmp,Bad,No,n,n,1,97
10,24,right,female,,32,好人,Trap1.bmp,Good,Yes,m,n,0,647
10,24,right,female,,33,好人,Trap3.bmp,Good,Yes,m,n,0,346
10,24,right,female,,34,好人,H4.bmp,Normal,No,n,m,0,193
10,24,right,female,,35,坏人,P2.bmp,Bad,Yes,m,n,0,25
10,24,right,female,,36,常人,H3.bmp,Normal,Yes,m,n,0,176
10,24,right,female,,37,好人,Trap1.bmp,Good,Yes,m,m,1,575
10,24,right,female,,38,常人,P4.bmp,Bad,No,n,n,1,656
10,24,right,female,,39,好人,Trap3.bmp,Good,Yes,m,n,0,588
10,24,right,female,,40,常人,Trap4.bmp,Good,No,n,n,1,535
10,24,right,female,,41,常人,H1.bmp,Normal,Yes,m,m,1,469
10,24,right,female,,42,坏人,Trap2.bmp,Good,No,n,n,1,622
10,24,right,female,,43,坏人,H2.bmp,Normal,No,n,,0,0
10,24,right,female,,44,坏人,P2.bmp,Bad,Yes,m,n,0,784
10,24,right,female,,45,常人,H3.bmp,Normal,Yes,m,n,0,571
10,24,right,female,,46,坏人,P3.bmp,Bad,Yes,m,m,1,327
10,24,right,female,,47,好人,H4.bmp,Normal,No,n,n,1,202
10,24,right,female,,48,好人,P1.bmp,Bad,No,n,m,0,350
10,24,right,female,,49,常人,H1.bmp,Normal,Yes,m,m,1,720
10,24,right,female,,50,坏人,Trap2.bmp,Good,No,n,n,1,497
10,24,right,female,,51,好人,Trap1.bmp,Good,Yes,m,n,0,646
10,24,right,female,,52,常人,H3.bmp,Normal,Yes,m,m,1,332
10,24,right,female,,53,好人,P1.bmp,Bad,No,n,n,1,659
10,24,right,female,,54,好人,Trap3.bmp,Good,Yes,m,m,1,902
10,24,right,female,,55,常人,Trap4.bmp,Good,No,n,n,1,335
10,24,right,female,,56,坏人,H2.bmp,Normal,No,n,m,0,786
10,24,right,female,,57,坏人,P2.bmp,Bad,Yes,m,n,0,342
10,24,right,female,,58,坏人,P3.bmp,Bad,Yes,m,n,0,412
10,24,right,female,,59,常人,P4.bmp,Bad,No,n,m,0,319
10,24,right,female,,60,好人,H4.bmp,Normal,No,n,m,0,877
10,24,right,female,,61,常人,Trap4.bmp,Good,No,n,n,1,557
10,24,right,female,,62,常人,P4.bmp,Bad,No,n,n,1,825
10,24,right,female,,63,坏人,P2.bmp,Bad,Yes,m,n,0,623
10,24,right,female,,64,好人,H4.bmp,Normal,No,n,n,1,813
10,24,right,female,,65,好人,Trap1.bmp,Good,Yes,m,n,0,688
10,24,right,female,,66,常人,H1.bmp,Normal,Yes,m,m,1,191
10,24,right,female,,67,坏人,P3.bmp,Bad,Yes,m,m,1,735
10,24,right,female,,68,坏人,Trap2.bmp,Good,No,n,n,1,616
10,24,right,female,,69,好人,P1.bmp,Bad,No,n,m,0,420
10,24,right,female,,70,好人,Trap3.bmp,Good,Yes,m,n,0,293
10,24,right,female,,71,常人,H3.bmp,Normal,Yes,m,m,1,293
10,24,right,female,,72,坏人,H2.bmp,Normal,No,n,m,0,701
10,24,right,female,,73,坏人,P2.bmp,Bad,Yes,m,n,0,537
10,24,right,female,,74,坏人,P3.bmp,Bad,Yes,m,m,1,532
10,24,right,female,,75,常人,H3.bmp,Normal,Yes,m,n,0,314
10,24,right,female,,76,坏人,H2.bmp,Normal,No,n,n,1,571
10,24,right,female,,77,常人,P4.bmp,Bad,No,n,n,1,561
10,24,right,female,,78,好人,Trap1.bmp,Good,Yes,m,m,1,453
10,24,right,female,,79,好人,H4.bmp,Normal,No,n,n,1,632
10,24,right,female,,80,常人,H1.bmp,Normal,Yes,m,m,1,652
10,24,right,female,,81,好人,Trap3.bmp,Good,Yes,m,n,0,383
10,24,right,female,,82,常人,Trap4.bmp,Good,No,n,m,0,67
10,24,right,female,,83,好人,P1.bmp,Bad,No,n,n,1,123
10,24,right,female,,84,坏人,Trap2.bmp,Good,No,n,m,0,124
10,24,right,female,,85,常人,H1.bmp,Normal,Yes,m,m,1,988
10,24,right,female,,86,坏人,P3.bmp,Bad,Yes,m,m,1,375
10,24,right,female,,87,好人,H4.bmp,Normal,No,n,n,1,107
10,24,right,female,,88,好人,Trap1.bmp,Good,Yes,m,m,1,73
10,24,right,female,,89,常人,P4.bmp,Bad,No,n,n,1,58
10,24,right,female,,90,坏人,Trap2.bmp,Good,No,n,m,0,58
10,24,right,female,,91,常人,H3.bmp,Normal,Yes,m,m,1,605
10,24,right,female,,92,常人,Trap4.bmp,Good,No,n,n,1,646
10,24,right,female,,93,好人,Trap3.bmp,Good,Yes,m,m,1,463
10,24,right,female,,94,坏人,P2.bmp,Bad,Yes,m,n,0,528
10,24,right,female,,95,好人,P1.bmp,Bad,No,n,n,1,958
10,24,right,female,,96,坏人,H2.bmp,Normal,No,n,m,0,713
10,24,right,female,,97,坏人,P3.bmp,Bad,Yes,m,n,0,692
10,24,right,female,,98,常人,H1.bmp,Normal,Yes,m,n,0,1098
10,24,right,female,,99,常人,P4.bmp,Bad,No,n,m,0,1051
10,24,right,female,,100,常人,H3.bmp,Normal,Yes,m,,0,0
10,24,right,female,,101,好人,P1.bmp,Bad,No,n,n,1,548
10,24,right,female,,102,坏人,H2.bmp,Normal,No,n,m,0,685
10,24,right,female,,103,好人,H4.bmp,Normal,No,n,n,1,217
10,24,right,female,,104,常人,Trap4.bmp,Good,No,n,n,1,425
10,24,right,female,,105,坏人,Trap2.bmp,Good,No,n,n,1,749
10,24,right,female,,106,好人,Trap3.bmp,Good,Yes,m,n,0,563
10,24,right,female,,107,坏人,P2.bmp,Bad,Yes,m,m,1,712
10,24,right,female,,108,好人,Trap1.bmp,Good,Yes,m,n,0,729
10,24,right,female,,109,坏人,Trap2.bmp,Good,No,n,n,1,505
10,24,right,female,,110,好人,H4.bmp,Normal,No,n,m,0,695
10,24,right,female,,111,常人,H1.bmp,Normal,Yes,m,n,0,400
10,24,right,female,,112,好人,Trap1.bmp,Good,Yes,m,n,0,251
10,24,right,female,,113,好人,P1.bmp,Bad,No,n,m,0,156
10,24,right,female,,114,常人,Trap4.bmp,Good,No,n,n,1,34
10,24,right,female,,115,常人,P4.bmp,Bad,No,n,n,1,126
10,24,right,female,,116,坏人,P3.bmp,Bad,Yes,m,n,0,134
10,24,right,female,,117,坏人,H2.bmp,Normal,No,n,m,0,125
10,24,right,female,,118,好人,Trap3.bmp,Good,Yes,m,,0,0
10,24,right,female,,119,常人,H3.bmp,Normal,Yes,m,,0,0
10,24,right,female,,120,坏人,P2.bmp,Bad,Yes,m,,0,0
10,24,right,female,,121,好人,Trap1.bmp,Good,Yes,m,n,0,710
10,24,right,female,,122,好人,Trap3.bmp,Good,Yes,m,n,0,325
10,24,right,female,,123,常人,H1.bmp,Normal,Yes,m,m,1,125
10,24,right,female,,124,常人,H3.bmp,Normal,Yes,m,m,1,138
10,24,right,female,,125,好人,P1.bmp,Bad,No,n,m,0,982
10,24,right,female,,126,好人,H4.bmp,Normal,No,n,n,1,895
10,24,right,female,,127,坏人,Trap2.bmp,Good,No,n,n,1,551
10,24,right,female,,128,坏人,P2.bmp,Bad,Yes,m,n,0,824
10,24,right,female,,129,常人,Trap4.bmp,Good,No,n,n,1,489
10,24,right,female,,130,坏人,P3.bmp,Bad,Yes,m,m,1,834
10,24,right,female,,131,常人,P4.bmp,Bad,No,n,m,0,512
10,24,right,female,,132,坏人,H2.bmp,Normal,No,n,n,1,814
10,24,right,female,,133,坏人,H2.bmp,Normal,No,n,m,0,926
10,24,right,female,,134,常人,H1.bmp,Normal,Yes,m,n,0,690
10,24,right,female,,135,坏人,P2.bmp,Bad,Yes,m,n,0,472
10,24,right,female,,136,好人,P1.bmp,Bad,No,n,n,1,358
10,24,right,female,,137,好人,H4.bmp,Normal,No,n,m,0,337
10,24,right,female,,138,好人,Trap1.bmp,Good,Yes,m,n,0,61
10,24,right,female,,139,坏人,Trap2.bmp,Good,No,n,,0,0
10,24,right,female,,140,常人,H3.bmp,Normal,Yes,m,,0,0
10,24,right,female,,141,常人,P4.bmp,Bad,No,n,m,0,98
10,24,right,female,,142,常人,Trap4.bmp,Good,No,n,n,1,352
10,24,right,female,,143,好人,Trap3.bmp,Good,Yes,m,n,0,353
10,24,right,female,,144,坏人,P3.bmp,Bad,Yes,m,m,1,308
10,24,right,female,,145,常人,P4.bmp,Bad,No,n,n,1,854
10,24,right,female,,146,好人,P1.bmp,Bad,No,n,m,0,462
10,24,right,female,,147,坏人,P3.bmp,Bad,Yes,m,,0,0
10,24,right,female,,148,常人,H1.bmp,Normal,Yes,m,n,0,464
10,24,right,female,,149,好人,Trap1.bmp,Good,Yes,m,n,0,697
10,24,right,female,,150,常人,Trap4.bmp,Good,No,n,m,0,434
10,24,right,female,,151,坏人,Trap2.bmp,Good,No,n,n,1,211
10,24,right,female,,152,好人,Trap3.bmp,Good,Yes,m,n,0,337
10,24,right,female,,153,好人,H4.bmp,Normal,No,n,m,0,356
10,24,right,female,,154,坏人,H2.bmp,Normal,No,n,m,0,1010
10,24,right,female,,155,常人,H3.bmp,Normal,Yes,m,,0,0
10,24,right,female,,156,坏人,P2.bmp,Bad,Yes,m,n,0,620
10,24,right,female,,157,坏人,P3.bmp,Bad,Yes,m,n,0,699
10,24,right,female,,158,常人,H1.bmp,Normal,Yes,m,m,1,673
10,24,right,female,,159,好人,P1.bmp,Bad,No,n,n,1,666
10,24,right,female,,160,坏人,P2.bmp,Bad,Yes,m,n,0,728
10,24,right,female,,161,好人,H4.bmp,Normal,No,n,n,1,783
10,24,right,female,,162,常人,P4.bmp,Bad,No,n,m,0,753
10,24,right,female,,163,常人,H3.bmp,Normal,Yes,m,m,1,586
10,24,right,female,,164,好人,Trap3.bmp,Good,Yes,m,n,0,614
10,24,right,female,,165,常人,Trap4.bmp,Good,No,n,m,0,547
10,24,right,female,,166,好人,Trap1.bmp,Good,Yes,m,m,1,598
10,24,right,female,,167,坏人,H2.bmp,Normal,No,n,n,1,732
10,24,right,female,,168,坏人,Trap2.bmp,Good,No,n,m,0,560
10,24,right,female,,169,好人,P1.bmp,Bad,No,n,n,1,543
10,24,right,female,,170,坏人,P3.bmp,Bad,Yes,m,n,0,438
10,24,right,female,,171,好人,Trap3.bmp,Good,Yes,m,n,0,452
10,24,right,female,,172,好人,Trap1.bmp,Good,Yes,m,m,1,162
10,24,right,female,,173,坏人,H2.bmp,Normal,No,n,n,1,581
10,24,right,female,,174,常人,Trap4.bmp,Good,No,n,m,0,894
10,24,right,female,,175,常人,H3.bmp,Normal,Yes,m,n,0,431
10,24,right,female,,176,坏人,Trap2.bmp,Good,No,n,,0,0
10,24,right,female,,177,常人,P4.bmp,Bad,No,n,n,1,262
10,24,right,female,,178,好人,H4.bmp,Normal,No,n,m,0,879
10,24,right,female,,179,坏人,P2.bmp,Bad,Yes,m,n,0,202
10,24,right,female,,180,常人,H1.bmp,Normal,Yes,m,m,1,320
10,24,right,female,,181,常人,P4.bmp,Bad,No,n,n,1,691
10,24,right,female,,182,好人,Trap1.bmp,Good,Yes,m,m,1,711
10,24,right,female,,183,坏人,P2.bmp,Bad,Yes,m,m,1,853
10,24,right,female,,184,好人,H4.bmp,Normal,No,n,n,1,425
10,24,right,female,,185,常人,Trap4.bmp,Good,No,n,m,0,495
10,24,right,female,,186,坏人,Trap2.bmp,Good,No,n,n,1,490
10,24,right,female,,187,常人,H1.bmp,Normal,Yes,m,m,1,411
10,24,right,female,,188,好人,P1.bmp,Bad,No,n,n,1,519
10,24,right,female,,189,常人,H3.bmp,Normal,Yes,m,m,1,487
10,24,right,female,,190,坏人,P3.bmp,Bad,Yes,m,n,0,486
10,24,right,female,,191,好人,Trap3.bmp,Good,Yes,m,n,0,609
10,24,right,female,,192,坏人,H2.bmp,Normal,No,n,m,0,663
10,24,right,female,,193,好人,Trap1.bmp,Good,Yes,m,m,1,1012
10,24,right,female,,194,坏人,Trap2.bmp,Good,No,n,n,1,1096
10,24,right,female,,195,好人,H4.bmp,Normal,No,n,m,0,753
10,24,right,female,,196,好人,P1.bmp,Bad,No,n,m,0,751
10,24,right,female,,197,常人,H3.bmp,Normal,Yes,m,,0,0
10,24,right,female,,198,常人,Trap4.bmp,Good,No,n,n,1,846
10,24,right,female,,199,坏人,H2.bmp,Normal,No,n,n,1,761
10,24,right,female,,200,好人,Trap3.bmp,Good,Yes,m,m,1,1023
10,24,right,female,,201,坏人,P3.bmp,Bad,Yes,m,m,1,864
10,24,right,female,,202,常人,P4.bmp,Bad,No,n,n,1,766
10,24,right,female,,203,常人,H1.bmp,Normal,Yes,m,n,0,847
10,24,right,female,,204,坏人,P2.bmp,Bad,Yes,m,m,1,532
10,24,right,female,,205,坏人,H2.bmp,Normal,No,n,n,1,669
10,24,right,female,,206,坏人,Trap2.bmp,Good,No,n,n,1,867
10,24,right,female,,207,坏人,P3.bmp,Bad,Yes,m,m,1,577
10,24,right,female,,208,常人,P4.bmp,Bad,No,n,n,1,837
10,24,right,female,,209,好人,Trap3.bmp,Good,Yes,m,m,1,541
10,24,right,female,,210,好人,Trap1.bmp,Good,Yes,m,m,1,619
10,24,right,female,,211,常人,H3.bmp,Normal,Yes,m,n,0,378
10,24,right,female,,212,好人,H4.bmp,Normal,No,n,n,1,576
10,24,right,female,,213,常人,Trap4.bmp,Good,No,n,m,0,494
10,24,right,female,,214,好人,P1.bmp,Bad,No,n,n,1,575
10,24,right,female,,215,坏人,P2.bmp,Bad,Yes,m,n,0,472
10,24,right,female,,216,常人,H1.bmp,Normal,Yes,m,m,1,859
10,24,right,female,1,1,坏人,P2.bmp,Bad,Yes,m,n,0,595
10,24,right,female,1,2,坏人,Trap3.bmp,Good,No,n,m,0,638
10,24,right,female,1,3,常人,Trap4.bmp,Good,No,n,n,1,519
10,24,right,female,1,4,好人,Trap4.bmp,Good,Yes,m,m,1,629
10,24,right,female,1,5,常人,Trap1.bmp,Good,No,n,m,0,521
10,24,right,female,1,6,好人,P4.bmp,Bad,No,n,n,1,522
10,24,right,female,1,7,常人,H3.bmp,Normal,Yes,m,n,0,760
10,24,right,female,1,8,好人,P2.bmp,Bad,No,n,n,1,673
10,24,right,female,1,9,好人,Trap1.bmp,Good,Yes,m,n,0,889
10,24,right,female,1,10,坏人,P1.bmp,Bad,Yes,m,,0,0
10,24,right,female,1,11,坏人,H2.bmp,Normal,No,n,,0,0
10,24,right,female,1,12,好人,Trap3.bmp,Good,Yes,m,n,0,297
10,24,right,female,1,13,好人,Trap2.bmp,Good,Yes,m,m,1,381
10,24,right,female,1,14,常人,H1.bmp,Normal,Yes,m,m,1,499
10,24,right,female,1,15,好人,Trap2.bmp,Good,Yes,m,m,1,561
10,24,right,female,1,16,常人,P2.bmp,Bad,No,n,n,1,762
10,24,right,female,1,17,常人,H4.bmp,Normal,Yes,m,n,0,733
10,24,right,female,1,18,常人,H3.bmp,Normal,Yes,m,m,1,409
10,24,right,female,1,19,常人,P3.bmp,Bad,No,n,m,0,405
10,24,right,female,1,20,坏人,P2.bmp,Bad,Yes,m,n,0,536
10,24,right,female,1,21,好人,H1.bmp,Normal,No,n,m,0,145
10,24,right,female,1,22,常人,Trap2.bmp,Good,No,n,n,1,129
10,24,right,female,1,23,好人,Trap2.bmp,Good,Yes,m,n,0,495
10,24,right,female,1,24,好人,Trap1.bmp,Good,Yes,m,m,1,576
10,24,right,female,1,25,坏人,H3.bmp,Normal,No,n,n,1,857
10,24,right,female,1,26,坏人,P1.bmp,Bad,Yes,m,n,0,799
10,24,right,female,1,27,常人,P4.bmp,Bad,No,n,n,1,1034
10,24,right,female,1,28,坏人,H2.bmp,Normal,No,n,n,1,851
10,24,right,female,1,29,好人,P1.bmp,Bad,No,n,n,1,559
10,24,right,female,1,30,坏人,P4.bmp,Bad,Yes,m,m,1,839
10,24,right,female,1,31,好人,H2.bmp,Normal,No,n,n,1,723
10,24,right,female,1,32,坏人,P3.bmp,Bad,Yes,m,m,1,455
10,24,right,female,1,33,坏人,P4.bmp,Bad,Yes,m,m,1,751
10,24,right,female,1,34,好人,H1.bmp,Normal,No,n,n,1,539
10,24,right,female,1,35,常人,H4.bmp,Normal,Yes,m,n,0,548
10,24,right,female,1,36,好人,Trap3.bmp,Good,Yes,m,m,1,453
10,24,right,female,1,37,坏人,P2.bmp,Bad,Yes,m,m,1,646
10,24,right,female,1,38,常人,H2.bmp,Normal,Yes,m,m,1,668
10,24,right,female,1,39,坏人,Trap3.bmp,Good,No,n,m,0,821
10,24,right,female,1,40,常人,H2.bmp,Normal,Yes,m,m,1,539
10,24,right,female,1,41,好人,Trap4.bmp,Good,Yes,m,m,1,332
10,24,right,female,1,42,常人,Trap4.bmp,Good,No,n,n,1,522
10,24,right,female,1,43,常人,H1.bmp,Normal,Yes,m,m,1,312
10,24,right,female,1,44,坏人,Trap1.bmp,Good,No,n,n,1,483
10,24,right,female,1,45,好人,P3.bmp,Bad,No,n,m,0,316
10,24,right,female,1,46,坏人,P3.bmp,Bad,Yes,m,m,1,468
10,24,right,female,1,47,常人,P1.bmp,Bad,No,n,n,1,760
10,24,right,female,1,48,常人,H4.bmp,Normal,Yes,m,m,1,632
10,24,right,female,1,49,好人,P1.bmp,Bad,No,n,n,1,516
10,24,right,female,1,50,常人,Trap3.bmp,Good,No,n,m,0,458
10,24,right,female,1,51,坏人,P4.bmp,Bad,Yes,m,n,0,507
10,24,right,female,1,52,好人,H4.bmp,Normal,No,n,n,1,881
10,24,right,female,1,53,常人,P4.bmp,Bad,No,n,n,1,642
10,24,right,female,1,54,坏人,H4.bmp,Normal,No,n,n,1,1011
10,24,right,female,1,55,好人,Trap1.bmp,Good,Yes,m,m,1,507
10,24,right,female,1,56,常人,H3.bmp,Normal,Yes,m,m,1,578
10,24,right,female,1,57,坏人,H1.bmp,Normal,No,n,m,0,605
10,24,right,female,1,58,好人,H3.bmp,Normal,No,n,n,1,593
10,24,right,female,1,59,坏人,Trap4.bmp,Good,No,n,n,1,812
10,24,right,female,1,60,坏人,Trap2.bmp,Good,No,n,n,1,717
10,24,right,female,2,1,好人,H2.bmp,Normal,No,n,n,1,737
10,24,right,female,2,2,坏人,H4.bmp,Normal,No,n,n,1,762
10,24,right,female,2,3,常人,H3.bmp,Normal,Yes,m,m,1,510
10,24,right,female,2,4,常人,Trap4.bmp,Good,No,n,m,0,876
10,24,right,female,2,5,坏人,P2.bmp,Bad,Yes,m,m,1,402
10,24,right,female,2,6,常人,P3.bmp,Bad,No,n,n,1,584
10,24,right,female,2,7,坏人,H2.bmp,Normal,No,n,m,0,446
10,24,right,female,2,8,好人,Trap1.bmp,Good,Yes,m,m,1,482
10,24,right,female,2,9,坏人,P1.bmp,Bad,Yes,m,m,1,736
10,24,right,female,2,10,好人,Trap1.bmp,Good,Yes,m,m,1,499
10,24,right,female,2,11,坏人,P4.bmp,Bad,Yes,m,m,1,706
10,24,right,female,2,12,好人,Trap1.bmp,Good,Yes,m,m,1,426
10,24,right,female,2,13,坏人,Trap2.bmp,Good,No,n,n,1,649
10,24,right,female,2,14,好人,Trap4.bmp,Good,Yes,m,m,1,719
10,24,right,female,2,15,好人,Trap3.bmp,Good,Yes,m,m,1,418
10,24,right,female,2,16,坏人,H3.bmp,Normal,No,n,n,1,363
10,24,right,female,2,17,坏人,Trap3.bmp,Good,No,n,m,0,574
10,24,right,female,2,18,常人,P4.bmp,Bad,No,n,n,1,412
10,24,right,female,2,19,好人,P2.bmp,Bad,No,n,m,0,775
10,24,right,female,2,20,好人,Trap3.bmp,Good,Yes,m,m,1,373
10,24,right,female,2,21,坏人,P3.bmp,Bad,Yes,m,n,0,515
10,24,right,female,2,22,坏人,Trap3.bmp,Good,No,n,n,1,882
10,24,right,female,2,23,好人,Trap2.bmp,Good,Yes,m,m,1,304
10,24,right,female,2,24,坏人,P1.bmp,Bad,Yes,m,m,1,606
10,24,right,female,2,25,坏人,H1.bmp,Normal,No,n,m,0,463
10,24,right,female,2,26,好人,Trap2.bmp,Good,Yes,m,m,1,381
10,24,right,female,2,27,坏人,Trap1.bmp,Good,No,n,n,1,769
10,24,right,female,2,28,常人,H4.bmp,Normal,Yes,m,m,1,377
10,24,right,female,2,29,好人,H1.bmp,Normal,No,n,n,1,741
10,24,right,female,2,30,好人,H4.bmp,Normal,No,n,m,0,456
10,24,right,female,2,31,常人,H3.bmp,Normal,Yes,m,m,1,396
10,24,right,female,2,32,好人,Trap4.bmp,Good,Yes,m,m,1,458
10,24,right,female,2,33,常人,Trap2.bmp,Good,No,n,n,1,619
10,24,right,female,2,34,坏人,P4.bmp,Bad,Yes,m,m,1,444
10,24,right,female,2,35,常人,H3.bmp,Normal,Yes,m,m,1,466
10,24,right,female,2,36,常人,H1.bmp,Normal,Yes,m,m,1,435
10,24,right,female,2,37,坏人,P2.bmp,Bad,Yes,m,n,0,459
10,24,right,female,2,38,坏人,P4.bmp,Bad,Yes,m,m,1,231
10,24,right,female,2,39,坏人,P2.bmp,Bad,Yes,m,m,1,520
10,24,right,female,2,40,常人,H2.bmp,Normal,Yes,m,m,1,352
10,24,right,female,2,41,好人,P3.bmp,Bad,No,n,n,1,481
10,24,right,female,2,42,常人,H4.bmp,Normal,Yes,m,m,1,535
10,24,right,female,2,43,常人,Trap3.bmp,Good,No,n,n,1,621
10,24,right,female,2,44,好人,Trap2.bmp,Good,Yes,m,m,1,275
10,24,right,female,2,45,常人,Trap4.bmp,Good,No,n,n,1,516
10,24,right,female,2,46,好人,P1.bmp,Bad,No,n,m,0,599
10,24,right,female,2,47,好人,P4.bmp,Bad,No,n,m,0,379
10,24,right,female,2,48,坏人,Trap4.bmp,Good,No,n,n,1,854
10,24,right,female,2,49,好人,H1.bmp,Normal,No,n,n,1,764
10,24,right,female,2,50,坏人,H2.bmp,Normal,No,n,n,1,480
10,24,right,female,2,51,常人,H2.bmp,Normal,Yes,m,m,1,534
10,24,right,female,2,52,坏人,P3.bmp,Bad,Yes,m,m,1,617
10,24,right,female,2,53,常人,P4.bmp,Bad,No,n,m,0,573
10,24,right,female,2,54,好人,H3.bmp,Normal,No,n,n,1,483
10,24,right,female,2,55,常人,H1.bmp,Normal,Yes,m,n,0,380
10,24,right,female,2,56,好人,P1.bmp,Bad,No,n,n,1,455
10,24,right,female,2,57,常人,P1.bmp,Bad,No,n,n,1,648
10,24,right,female,2,58,常人,H4.bmp,Normal,Yes,m,m,1,633
10,24,right,female,2,59,常人,P2.bmp,Bad,No,n,n,1,522
10,24,right,female,2,60,常人,Trap1.bmp,Good,No,n,n,1,408
10,24,right,female,3,1,坏人,P4.bmp,Bad,Yes,m,n,0,491
10,24,right,female,3,2,好人,Trap1.bmp,Good,Yes,m,m,1,500
10,24,right,female,3,3,常人,P2.bmp,Bad,No,n,m,0,498
10,24,right,female,3,4,好人,P4.bmp,Bad,No,n,n,1,296
10,24,right,female,3,5,好人,Trap4.bmp,Good,Yes,m,n,0,444
10,24,right,female,3,6,坏人,P4.bmp,Bad,Yes,m,m,1,591
10,24,right,female,3,7,坏人,P3.bmp,Bad,Yes,m,m,1,448
10,24,right,female,3,8,常人,H3.bmp,Normal,Yes,m,n,0,361
10,24,right,female,3,9,好人,Trap1.bmp,Good,Yes,m,m,1,429
10,24,right,female,3,10,坏人,P1.bmp,Bad,Yes,m,m,1,510
10,24,right,female,3,11,常人,H1.bmp,Normal,Yes,m,m,1,415
10,24,right,female,3,12,常人,P4.bmp,Bad,No,n,n,1,439
10,24,right,female,3,13,坏人,H2.bmp,Normal,No,n,n,1,555
10,24,right,female,3,14,好人,H3.bmp,Normal,No,n,n,1,548
10,24,right,female,3,15,坏人,P2.bmp,Bad,Yes,m,m,1,783
10,24,right,female,3,16,坏人,H2.bmp,Normal,No,n,m,0,696
10,24,right,female,3,17,坏人,P2.bmp,Bad,Yes,m,m,1,532
10,24,right,female,3,18,常人,H2.bmp,Normal,Yes,m,m,1,461
10,24,right,female,3,19,常人,P4.bmp,Bad,No,n,n,1,360
10,24,right,female,3,20,常人,H3.bmp,Normal,Yes,m,m,1,419
10,24,right,female,3,21,坏人,Trap1.bmp,Good,No,n,n,1,319
10,24,right,female,3,22,好人,Trap2.bmp,Good,Yes,m,m,1,601
10,24,right,female,3,23,好人,H1.bmp,Normal,No,n,n,1,453
10,24,right,female,3,24,坏人,P4.bmp,Bad,Yes,m,m,1,531
10,24,right,female,3,25,好人,P2.bmp,Bad,No,n,n,1,734
10,24,right,female,3,26,坏人,P2.bmp,Bad,Yes,m,m,1,503
10,24,right,female,3,27,坏人,H3.bmp,Normal,No,n,m,0,461
10,24,right,female,3,28,好人,H2.bmp,Normal,No,n,m,0,337
10,24,right,female,3,29,坏人,P3.bmp,Bad,Yes,m,n,0,244
10,24,right,female,3,30,常人,H4.bmp,Normal,Yes,m,m,1,331
10,24,right,female,3,31,坏人,Trap3.bmp,Good,No,n,n,1,657
10,24,right,female,3,32,好人,Trap4.bmp,Good,Yes,m,m,1,500
10,24,right,female,3,33,常人,Trap2.bmp,Good,No,n,n,1,477
10,24,right,female,3,34,好人,Trap3.bmp,Good,Yes,m,m,1,489
10,24,right,female,3,35,常人,Trap4.bmp,Good,No,n,n,1,404
10,24,right,female,3,36,好人,P3.bmp,Bad,No,n,n,1,898
10,24,right,female,3,37,坏人,H4.bmp,Normal,No,n,m,0,563
10,24,right,female,3,38,常人,H4.bmp,Normal,Yes,m,m,1,473
10,24,right,female,3,39,坏人,Trap3.bmp,Good,No,n,n,1,586
10,24,right,female,3,40,好人,Trap2.bmp,Good,Yes,m,m,1,606
10,24,right,female,3,41,好人,P1.bmp,Bad,No,n,m,0,910
10,24,right,female,3,42,好人,P1.bmp,Bad,No,n,m,0,551
10,24,right,female,3,43,好人,H4.bmp,Normal,No,n,n,1,200
10,24,right,female,3,44,常人,H2.bmp,Normal,Yes,m,m,1,337
10,24,right,female,3,45,好人,Trap2.bmp,Good,Yes,m,m,1,469
10,24,right,female,3,46,常人,Trap4.bmp,Good,No,n,n,1,527
10,24,right,female,3,47,常人,P1.bmp,Bad,No,n,m,0,568
10,24,right,female,3,48,好人,Trap1.bmp,Good,Yes,m,m,1,403
10,24,right,female,3,49,好人,Trap3.bmp,Good,Yes,m,m,1,513
10,24,right,female,3,50,坏人,H1.bmp,Normal,No,n,n,1,749
10,24,right,female,3,51,常人,Trap1.bmp,Good,No,n,n,1,440
10,24,right,female,3,52,坏人,Trap2.bmp,Good,No,n,n,1,527
10,24,right,female,3,53,常人,P3.bmp,Bad,No,n,n,1,655
10,24,right,female,3,54,常人,H3.bmp,Normal,Yes,m,m,1,504
10,24,right,female,3,55,坏人,Trap4.bmp,Good,No,n,n,1,455
10,24,right,female,3,56,好人,H1.bmp,Normal,No,n,n,1,629
10,24,right,female,3,57,常人,H4.bmp,Normal,Yes,m,m,1,675
10,24,right,female,3,58,常人,Trap3.bmp,Good,No,n,n,1,366
10,24,right,female,3,59,坏人,P1.bmp,Bad,Yes,m,n,0,839
10,24,right,female,3,60,常人,H1.bmp,Normal,Yes,m,m,1,672
10,24,right,female,4,1,坏人,Trap3.bmp,Good,No,n,n,1,497
10,24,right,female,4,2,常人,P4.bmp,Bad,No,n,n,1,644
10,24,right,female,4,3,好人,Trap2.bmp,Good,Yes,m,m,1,437
10,24,right,female,4,4,坏人,Trap3.bmp,Good,No,n,n,1,619
10,24,right,female,4,5,常人,P1.bmp,Bad,No,n,n,1,585
10,24,right,female,4,6,常人,Trap4.bmp,Good,No,n,m,0,663
10,24,right,female,4,7,常人,H3.bmp,Normal,Yes,m,m,1,539
10,24,right,female,4,8,坏人,H3.bmp,Normal,No,n,n,1,417
10,24,right,female,4,9,好人,Trap3.bmp,Good,Yes,m,n,0,458
10,24,right,female,4,10,常人,P3.bmp,Bad,No,n,m,0,707
10,24,right,female,4,11,好人,H1.bmp,Normal,No,n,n,1,481
10,24,right,female,4,12,常人,Trap2.bmp,Good,No,n,n,1,420
10,24,right,female,4,13,坏人,P2.bmp,Bad,Yes,m,m,1,523
10,24,right,female,4,14,常人,H2.bmp,Normal,Yes,m,,0,0
10,24,right,female,4,15,好人,Trap4.bmp,Good,Yes,m,m,1,465
10,24,right,female,4,16,常人,H1.bmp,Normal,Yes,m,n,0,752
10,24,right,female,4,17,好人,P3.bmp,Bad,No,n,m,0,408
10,24,right,female,4,18,好人,P1.bmp,Bad,No,n,n,1,679
10,24,right,female,4,19,坏人,H2.bmp,Normal,No,n,n,1,813
10,24,right,female,4,20,好人,P4.bmp,Bad,No,n,n,1,579
10,24,right,female,4,21,好人,P1.bmp,Bad,No,n,m,0,689
10,24,right,female,4,22,坏人,P4.bmp,Bad,Yes,m,m,1,477
10,24,right,female,4,23,好人,H4.bmp,Normal,No,n,n,1,445
10,24,right,female,4,24,好人,Trap2.bmp,Good,Yes,m,m,1,497
10,24,right,female,4,25,好人,H3.bmp,Normal,No,n,n,1,636
10,24,right,female,4,26,坏人,Trap4.bmp,Good,No,n,m,0,460
10,24,right,female,4,27,坏人,P2.bmp,Bad,Yes,m,m,1,840
10,24,right,female,4,28,坏人,H1.bmp,Normal,No,n,n,1,520
10,24,right,female,4,29,好人,P2.bmp,Bad,No,n,m,0,673
10,24,right,female,4,30,好人,H2.bmp,Normal,No,n,n,1,333
10,24,right,female,4,31,常人,H1.bmp,Normal,Yes,m,m,1,739
10,24,right,female,4,32,常人,Trap3.bmp,Good,No,n,n,1,535
10,24,right,female,4,33,常人,H3.bmp,Normal,Yes,m,m,1,714
10,24,right,female,4,34,坏人,P1.bmp,Bad,Yes,m,n,0,368
10,24,right,female,4,35,好人,Trap2.bmp,Good,Yes,m,m,1,452
10,24,right,female,4,36,常人,H4.bmp,Normal,Yes,m,m,1,378
10,24,right,female,4,37,好人,H1.bmp,Normal,No,n,n,1,613
10,24,right,female,4,38,常人,H4.bmp,Normal,Yes,m,n,0,489
10,24,right,female,4,39,好人,Trap1.bmp,Good,Yes,m,m,1,487
10,24,right,female,4,40,坏人,H4.bmp,Normal,No,n,n,1,523
10,24,right,female,4,41,好人,Trap3.bmp,Good,Yes,m,m,1,593
10,24,right,female,4,42,坏人,Trap2.bmp,Good,No,n,n,1,506
10,24,right,female,4,43,坏人,P3.bmp,Bad,Yes,m,m,1,1013
10,24,right,female,4,44,常人,H2.bmp,Normal,Yes,m,m,1,443
10,24,right,female,4,45,常人,Trap4.bmp,Good,No,n,n,1,529
10,24,right,female,4,46,好人,Trap1.bmp,Good,Yes,m,m,1,685
10,24,right,female,4,47,常人,P2.bmp,Bad,No,n,n,1,582
10,24,right,female,4,48,坏人,P2.bmp,Bad,Yes,m,m,1,713
10,24,right,female,4,49,好人,Trap4.bmp,Good,Yes,m,m,1,583
10,24,right,female,4,50,坏人,P1.bmp,Bad,Yes,m,n,0,474
10,24,right,female,4,51,常人,Trap1.bmp,Good,No,n,n,1,560
10,24,right,female,4,52,坏人,P3.bmp,Bad,Yes,m,m,1,547
10,24,right,female,4,53,常人,P4.bmp,Bad,No,n,n,1,463
10,24,right,female,4,54,坏人,P4.bmp,Bad,Yes,m,m,1,485
10,24,right,female,4,55,坏人,P4.bmp,Bad,Yes,m,m,1,659
10,24,right,female,4,56,常人,H3.bmp,Normal,Yes,m,n,0,758
10,24,right,female,4,57,好人,Trap1.bmp,Good,Yes,m,m,1,410
10,24,right,female,4,58,坏人,H2.bmp,Normal,No,n,n,1,816
10,24,right,female,4,59,常人,H4.bmp,Normal,Yes,m,m,1,473
10,24,right,female,4,60,坏人,Trap1.bmp,Good,No,n,n,1,970
10,24,right,female,5,1,坏人,P4.bmp,Bad,Yes,m,m,1,974
10,24,right,female,5,2,常人,Trap3.bmp,Good,No,n,n,1,458
10,24,right,female,5,3,好人,Trap3.bmp,Good,Yes,m,m,1,490
10,24,right,female,5,4,常人,P4.bmp,Bad,No,n,n,1,470
10,24,right,female,5,5,好人,Trap2.bmp,Good,Yes,m,m,1,524
10,24,right,female,5,6,坏人,P1.bmp,Bad,Yes,m,m,1,546
10,24,right,female,5,7,坏人,Trap3.bmp,Good,No,n,m,0,647
10,24,right,female,5,8,坏人,Trap3.bmp,Good,No,n,m,0,467
10,24,right,female,5,9,好人,Trap1.bmp,Good,Yes,m,m,1,446
10,24,right,female,5,10,坏人,P2.bmp,Bad,Yes,m,m,1,839
10,24,right,female,5,11,好人,P1.bmp,Bad,No,n,m,0,472
10,24,right,female,5,12,好人,H2.bmp,Normal,No,n,m,0,419
10,24,right,female,5,13,好人,Trap1.bmp,Good,Yes,m,n,0,703
10,24,right,female,5,14,常人,H3.bmp,Normal,Yes,m,m,1,525
10,24,right,female,5,15,好人,Trap4.bmp,Good,Yes,m,m,1,459
10,24,right,female,5,16,好人,P3.bmp,Bad,No,n,m,0,748
10,24,right,female,5,17,坏人,P4.bmp,Bad,Yes,m,m,1,450
10,24,right,female,5,18,常人,P3.bmp,Bad,No,n,n,1,523
10,24,right,female,5,19,坏人,H4.bmp,Normal,No,n,n,1,860
10,24,right,female,5,20,坏人,Trap4.bmp,Good,No,n,n,1,533
10,24,right,female,5,21,常人,H4.bmp,Normal,Yes,m,m,1,486
10,24,right,female,5,22,好人,H4.bmp,Normal,No,n,n,1,561
10,24,right,female,5,23,坏人,P2.bmp,Bad,Yes,m,m,1,674
10,24,right,female,5,24,好人,Trap4.bmp,Good,Yes,m,m,1,811
10,24,right,female,5,25,好人,P2.bmp,Bad,No,n,m,0,700
10,24,right,female,5,26,好人,Trap2.bmp,Good,Yes,m,m,1,514
10,24,right,female,5,27,坏人,P2.bmp,Bad,Yes,m,m,1,456
10,24,right,female,5,28,好人,P1.bmp,Bad,No,n,,0,0
10,24,right,female,5,29,常人,P4.bmp,Bad,No,n,n,1,727
10,24,right,female,5,30,坏人,P3.bmp,Bad,Yes,m,m,1,548
10,24,right,female,5,31,常人,H1.bmp,Normal,Yes,m,m,1,778
10,24,right,female,5,32,好人,Trap2.bmp,Good,Yes,m,n,0,816
10,24,right,female,5,33,好人,Trap3.bmp,Good,Yes,m,m,1,583
10,24,right,female,5,34,常人,Trap1.bmp,Good,No,n,n,1,354
10,24,right,female,5,35,坏人,Trap2.bmp,Good,No,n,m,0,438
10,24,right,female,5,36,坏人,H3.bmp,Normal,No,n,n,1,337
10,24,right,female,5,37,好人,H3.bmp,Normal,No,n,n,1,554
10,24,right,female,5,38,常人,H4.bmp,Normal,Yes,m,m,1,477
10,24,right,female,5,39,常人,Trap2.bmp,Good,No,n,n,1,699
10,24,right,female,5,40,好人,Trap1.bmp,Good,Yes,m,m,1,458
10,24,right,female,5,41,坏人,P3.bmp,Bad,Yes,m,m,1,525
10,24,right,female,5,42,常人,H2.bmp,Normal,Yes,m,m,1,403
10,24,right,female,5,43,常人,Trap4.bmp,Good,No,n,n,1,644
10,24,right,female,5,44,好人,H1.bmp,Normal,No,n,m,0,322
10,24,right,female,5,45,好人,P4.bmp,Bad,No,n,n,1,648
10,24,right,female,5,46,坏人,H2.bmp,Normal,No,n,n,1,758
10,24,right,female,5,47,常人,H2.bmp,Normal,Yes,m,m,1,404
10,24,right,female,5,48,坏人,P1.bmp,Bad,Yes,m,m,1,600
10,24,right,female,5,49,好人,H1.bmp,Normal,No,n,n,1,457
10,24,right,female,5,50,常人,P2.bmp,Bad,No,n,n,1,612
10,24,right,female,5,51,坏人,Trap1.bmp,Good,No,n,m,0,584
10,24,right,female,5,52,常人,H3.bmp,Normal,Yes,m,m,1,464
10,24,right,female,5,53,坏人,P4.bmp,Bad,Yes,m,n,0,508
10,24,right,female,5,54,坏人,H2.bmp,Normal,No,n,m,0,478
10,24,right,female,5,55,常人,P1.bmp,Bad,No,n,m,0,500
10,24,right,female,5,56,常人,H4.bmp,Normal,Yes,m,m,1,523
10,24,right,female,5,57,坏人,H1.bmp,Normal,No,n,n,1,540
10,24,right,female,5,58,常人,H1.bmp,Normal,Yes,m,n,0,738
10,24,right,female,5,59,常人,H3.bmp,Normal,Yes,m,m,1,477
10,24,right,female,5,60,常人,Trap4.bmp,Good,No,n,n,1,433
10,24,right,female,6,1,坏人,Trap4.bmp,Good,No,n,n,1,762
10,24,right,female,6,2,常人,H4.bmp,Normal,Yes,m,m,1,464
10,24,right,female,6,3,坏人,P3.bmp,Bad,Yes,m,m,1,598
10,24,right,female,6,4,常人,H2.bmp,Normal,Yes,m,m,1,722
10,24,right,female,6,5,常人,H1.bmp,Normal,Yes,m,m,1,453
10,24,right,female,6,6,坏人,Trap3.bmp,Good,No,n,n,1,547
10,24,right,female,6,7,好人,Trap1.bmp,Good,Yes,m,n,0,468
10,24,right,female,6,8,常人,Trap4.bmp,Good,No,n,n,1,520
10,24,right,female,6,9,坏人,P2.bmp,Bad,Yes,m,m,1,480
10,24,right,female,6,10,坏人,H4.bmp,Normal,No,n,n,1,736
10,24,right,female,6,11,常人,Trap1.bmp,Good,No,n,n,1,505
10,24,right,female,6,12,坏人,P2.bmp,Bad,Yes,m,m,1,498
10,24,right,female,6,13,坏人,P3.bmp,Bad,Yes,m,m,1,512
10,24,right,female,6,14,常人,Trap4.bmp,Good,No,n,n,1,910
10,24,right,female,6,15,好人,Trap3.bmp,Good,Yes,m,m,1,914
10,24,right,female,6,16,好人,H1.bmp,Normal,No,n,n,1,539
10,24,right,female,6,17,坏人,Trap1.bmp,Good,No,n,n,1,508
10,24,right,female,6,18,常人,H3.bmp,Normal,Yes,m,m,1,554
10,24,right,female,6,19,常人,H1.bmp,Normal,Yes,m,m,1,432
10,24,right,female,6,20,坏人,Trap2.bmp,Good,No,n,n,1,577
10,24,right,female,6,21,常人,P1.bmp,Bad,No,n,n,1,930
10,24,right,female,6,22,好人,H1.bmp,Normal,No,n,n,1,802
10,24,right,female,6,23,好人,P1.bmp,Bad,No,n,n,1,806
10,24,right,female,6,24,好人,P4.bmp,Bad,No,n,n,1,940
10,24,right,female,6,25,常人,H2.bmp,Normal,Yes,m,m,1,424
10,24,right,female,6,26,坏人,P4.bmp,Bad,Yes,m,m,1,568
10,24,right,female,6,27,坏人,P1.bmp,Bad,Yes,m,n,0,604
10,24,right,female,6,28,坏人,H3.bmp,Normal,No,n,n,1,685
10,24,right,female,6,29,常人,Trap3.bmp,Good,No,n,n,1,547
10,24,right,female,6,30,常人,Trap2.bmp,Good,No,n,m,0,788
10,24,right,female,6,31,好人,H4.bmp,Normal,No,n,m,0,650
10,24,right,female,6,32,好人,H2.bmp,Normal,No,n,m,0,429
10,24,right,female,6,33,好人,P2.bmp,Bad,No,n,n,1,730
10,24,right,female,6,34,常人,P2.bmp,Bad,No,n,n,1,627
10,24,right,female,6,35,好人,Trap3.bmp,Good,Yes,m,n,0,695
10,24,right,female,6,36,好人,Trap4.bmp,Good,Yes,m,m,1,600
10,24,right,female,6,37,坏人,H1.bmp,Normal,No,n,n,1,750
10,24,right,female,6,38,常人,P4.bmp,Bad,No,n,n,1,553
10,24,right,female,6,39,常人,H4.bmp,Normal,Yes,m,m,1,533
10,24,right,female,6,40,坏人,P4.bmp,Bad,Yes,m,m,1,702
10,24,right,female,6,41,好人,P1.bmp,Bad,No,n,n,1,852
10,24,right,female,6,42,好人,H3.bmp,Normal,No,n,m,0,658
10,24,right,female,6,43,好人,P3.bmp,Bad,No,n,n,1,552
10,24,right,female,6,44,常人,H4.bmp,Normal,Yes,m,n,0,548
10,24,right,female,6,45,好人,Trap2.bmp,Good,Yes,m,m,1,631
10,24,right,female,6,46,常人,H3.bmp,Normal,Yes,m,m,1,432
10,24,right,female,6,47,坏人,P1.bmp,Bad,Yes,m,m,1,542
10,24,right,female,6,48,常人,P3.bmp,Bad,No,n,n,1,572
10,24,right,female,6,49,坏人,P4.bmp,Bad,Yes,m,m,1,578
10,24,right,female,6,50,常人,P4.bmp,Bad,No,n,n,1,510
10,24,right,female,6,51,常人,H3.bmp,Normal,Yes,m,m,1,655
10,24,right,female,6,52,好人,Trap2.bmp,Good,Yes,m,m,1,525
10,24,right,female,6,53,好人,Trap1.bmp,Good,Yes,m,m,1,536
10,24,right,female,6,54,坏人,P2.bmp,Bad,Yes,m,m,1,980
10,24,right,female,6,55,坏人,H2.bmp,Normal,No,n,n,1,485
10,24,right,female,6,56,好人,Trap4.bmp,Good,Yes,m,m,1,495
10,24,right,female,6,57,坏人,H2.bmp,Normal,No,n,n,1,619
10,24,right,female,6,58,好人,Trap1.bmp,Good,Yes,m,m,1,411
10,24,right,female,6,59,坏人,Trap3.bmp,Good,No,n,n,1,636
10,24,right,female,6,60,好人,Trap2.bmp,Good,Yes,m,n,0,658
13,25,right,female,,1,坏人,H2.bmp,Normal,No,m,,0,0
13,25,right,female,,2,好人,H4.bmp,Normal,No,m,n,0,605
13,25,right,female,,3,常人,H3.bmp,Normal,Yes,n,n,1,811
13,25,right,female,,4,坏人,P3.bmp,Bad,Yes,n,m,0,721
13,25,right,female,,5,常人,Trap4.bmp,Good,No,m,m,1,1066
13,25,right,female,,6,好人,P1.bmp,Bad,No,m,m,1,1067
13,25,right,female,,7,坏人,Trap2.bmp,Good,No,m,n,0,611
13,25,right,female,,8,好人,Trap3.bmp,Good,Yes,n,m,0,884
13,25,right,female,,9,常人,H1.bmp,Normal,Yes,n,m,0,853
13,25,right,female,,10,常人,P4.bmp,Bad,No,m,m,1,902
13,25,right,female,,11,好人,Trap1.bmp,Good,Yes,n,n,1,503
13,25,right,female,,12,坏人,P2.bmp,Bad,Yes,n,n,1,810
13,25,right,female,,13,坏人,Trap2.bmp,Good,No,m,m,1,857
13,25,right,female,,14,常人,P4.bmp,Bad,No,m,n,0,919
13,25,right,female,,15,坏人,P3.bmp,Bad,Yes,n,n,1,930
13,25,right,female,,16,坏人,P2.bmp,Bad,Yes,n,n,1,829
13,25,right,female,,17,好人,H4.bmp,Normal,No,m,m,1,603
13,25,right,female,,18,好人,Trap3.bmp,Good,Yes,n,n,1,868
13,25,right,female,,19,好人,P1.bmp,Bad,No,m,m,1,1069
13,25,right,female,,20,常人,H3.bmp,Normal,Yes,n,,0,0
13,25,right,female,,21,坏人,H2.bmp,Normal,No,m,n,0,900
13,25,right,female,,22,常人,Trap4.bmp,Good,No,m,n,0,936
13,25,right,female,,23,好人,Trap1.bmp,Good,Yes,n,n,1,862
13,25,right,female,,24,常人,H1.bmp,Normal,Yes,n,m,0,761
13,25,right,female,,25,常人,H3.bmp,Normal,Yes,n,m,0,792
13,25,right,female,,26,好人,P1.bmp,Bad,No,m,m,1,734
13,25,right,female,,27,常人,P4.bmp,Bad,No,m,m,1,849
13,25,right,female,,28,好人,Trap1.bmp,Good,Yes,n,n,1,685
13,25,right,female,,29,坏人,P3.bmp,Bad,Yes,n,n,1,638
13,25,right,female,,30,常人,H1.bmp,Normal,Yes,n,m,0,742
13,25,right,female,,31,坏人,H2.bmp,Normal,No,m,m,1,847
13,25,right,female,,32,好人,Trap3.bmp,Good,Yes,n,n,1,792
13,25,right,female,,33,好人,H4.bmp,Normal,No,m,n,0,897
13,25,right,female,,34,常人,Trap4.bmp,Good,No,m,m,1,617
13,25,right,female,,35,坏人,P2.bmp,Bad,Yes,n,n,1,780
13,25,right,female,,36,坏人,Trap2.bmp,Good,No,m,n,0,757
13,25,right,female,,37,坏人,P2.bmp,Bad,Yes,n,n,1,860
13,25,right,female,,38,好人,H4.bmp,Normal,No,m,m,1,560
13,25,right,female,,39,常人,H1.bmp,Normal,Yes,n,n,1,1033
13,25,right,female,,40,常人,Trap4.bmp,Good,No,m,n,0,636
13,25,right,female,,41,常人,H3.bmp,Normal,Yes,n,m,0,685
13,25,right,female,,42,坏人,H2.bmp,Normal,No,m,m,1,827
13,25,right,female,,43,坏人,P3.bmp,Bad,Yes,n,,0,0
13,25,right,female,,44,好人,Trap1.bmp,Good,Yes,n,n,1,810
13,25,right,female,,45,好人,P1.bmp,Bad,No,m,m,1,750
13,25,right,female,,46,坏人,Trap2.bmp,Good,No,m,n,0,820
13,25,right,female,,47,好人,Trap3.bmp,Good,Yes,n,n,1,701
13,25,right,female,,48,常人,P4.bmp,Bad,No,m,n,0,848
13,25,right,female,,49,坏人,Trap2.bmp,Good,No,m,m,1,863
13,25,right,female,,50,常人,Trap4.bmp,Good,No,m,n,0,808
13,25,right,female,,51,常人,P4.bmp,Bad,No,m,n,0,1007
13,25,right,female,,52,好人,P1.bmp,Bad,No,m,n,0,914
13,25,right,female,,53,坏人,H2.bmp,Normal,No,m,m,1,904
13,25,right,female,,54,坏人,P3.bmp,Bad,Yes,n,,0,0
13,25,right,female,,55,坏人,P2.bmp,Bad,Yes,n,n,1,831
13,25,right,female,,56,常人,H1.bmp,Normal,Yes,n,m,0,838
13,25,right,female,,57,好人,Trap1.bmp,Good,Yes,n,n,1,905
13,25,right,female,,58,好人,Trap3.bmp,Good,Yes,n,n,1,719
13,25,right,female,,59,好人,H4.bmp,Normal,No,m,m,1,627
13,25,right,female,,60,常人,H3.bmp,Normal,Yes,n,n,1,862
13,25,right,female,1,1,坏人,P2.bmp,Bad,Yes,n,m,0,995
13,25,right,female,1,2,好人,Trap2.bmp,Good,Yes,n,n,1,657
13,25,right,female,1,3,好人,H4.bmp,Normal,No,m,n,0,863
13,25,right,female,1,4,好人,Trap4.bmp,Good,Yes,n,n,1,695
13,25,right,female,1,5,常人,H3.bmp,Normal,Yes,n,n,1,837
13,25,right,female,1,6,坏人,Trap4.bmp,Good,No,m,m,1,779
13,25,right,female,1,7,坏人,H2.bmp,Normal,No,m,m,1,695
13,25,right,female,1,8,常人,P4.bmp,Bad,No,m,n,0,1056
13,25,right,female,1,9,坏人,P4.bmp,Bad,Yes,n,,0,0
13,25,right,female,1,10,常人,Trap3.bmp,Good,No,m,n,0,783
13,25,right,female,1,11,常人,H4.bmp,Normal,Yes,n,n,1,674
13,25,right,female,1,12,好人,H2.bmp,Normal,No,m,m,1,649
13,25,right,female,1,13,常人,P2.bmp,Bad,No,m,m,1,767
13,25,right,female,1,14,坏人,P1.bmp,Bad,Yes,n,m,0,871
13,25,right,female,1,15,坏人,H3.bmp,Normal,No,m,m,1,918
13,25,right,female,1,16,好人,Trap2.bmp,Good,Yes,n,n,1,823
13,25,right,female,1,17,好人,H3.bmp,Normal,No,m,m,1,693
13,25,right,female,1,18,常人,H2.bmp,Normal,Yes,n,n,1,926
13,25,right,female,1,19,坏人,P3.bmp,Bad,Yes,n,n,1,889
13,25,right,female,1,20,好人,Trap1.bmp,Good,Yes,n,n,1,805
13,25,right,female,1,21,坏人,P1.bmp,Bad,Yes,n,n,1,717
13,25,right,female,1,22,常人,P1.bmp,Bad,No,m,n,0,828
13,25,right,female,1,23,常人,Trap4.bmp,Good,No,m,m,1,695
13,25,right,female,1,24,常人,H4.bmp,Normal,Yes,n,m,0,704
13,25,right,female,1,25,好人,Trap2.bmp,Good,Yes,n,n,1,763
13,25,right,female,1,26,常人,Trap2.bmp,Good,No,m,n,0,759
13,25,right,female,1,27,常人,H3.bmp,Normal,Yes,n,n,1,767
13,25,right,female,1,28,好人,P4.bmp,Bad,No,m,m,1,898
13,25,right,female,1,29,常人,P4.bmp,Bad,No,m,m,1,824
13,25,right,female,1,30,好人,P1.bmp,Bad,No,m,m,1,772
13,25,right,female,1,31,坏人,Trap3.bmp,Good,No,m,m,1,877
13,25,right,female,1,32,常人,H2.bmp,Normal,Yes,n,n,1,715
13,25,right,female,1,33,好人,P2.bmp,Bad,No,m,m,1,766
13,25,right,female,1,34,坏人,P4.bmp,Bad,Yes,n,n,1,804
13,25,right,female,1,35,常人,P3.bmp,Bad,No,m,m,1,843
13,25,right,female,1,36,坏人,P4.bmp,Bad,Yes,n,n,1,745
13,25,right,female,1,37,坏人,Trap1.bmp,Good,No,m,m,1,775
13,25,right,female,1,38,好人,Trap1.bmp,Good,Yes,n,n,1,776
13,25,right,female,1,39,好人,Trap3.bmp,Good,Yes,n,n,1,814
13,25,right,female,1,40,常人,H4.bmp,Normal,Yes,n,n,1,791
13,25,right,female,1,41,好人,Trap4.bmp,Good,Yes,n,m,0,869
13,25,right,female,1,42,好人,P1.bmp,Bad,No,m,m,1,811
13,25,right,female,1,43,坏人,H1.bmp,Normal,No,m,n,0,903
13,25,right,female,1,44,常人,Trap1.bmp,Good,No,m,n,0,922
13,25,right,female,1,45,坏人,P2.bmp,Bad,Yes,n,n,1,969
13,25,right,female,1,46,好人,H1.bmp,Normal,No,m,m,1,777
13,25,right,female,1,47,好人,P3.bmp,Bad,No,m,m,1,703
13,25,right,female,1,48,好人,Trap1.bmp,Good,Yes,n,n,1,782
13,25,right,female,1,49,坏人,H4.bmp,Normal,No,m,n,0,695
13,25,right,female,1,50,坏人,H2.bmp,Normal,No,m,m,1,933
13,25,right,female,1,51,坏人,Trap2.bmp,Good,No,m,n,0,789
13,25,right,female,1,52,常人,H1.bmp,Normal,Yes,n,n,1,867
13,25,right,female,1,53,坏人,Trap3.bmp,Good,No,m,m,1,644
13,25,right,female,1,54,常人,Trap4.bmp,Good,No,m,m,1,290
13,25,right,female,1,55,常人,H1.bmp,Normal,Yes,n,m,0,811
13,25,right,female,1,56,好人,Trap3.bmp,Good,Yes,n,m,0,865
13,25,right,female,1,57,好人,H1.bmp,Normal,No,m,m,1,681
13,25,right,female,1,58,常人,H3.bmp,Normal,Yes,n,n,1,685
13,25,right,female,1,59,坏人,P3.bmp,Bad,Yes,n,n,1,819
13,25,right,female,1,60,坏人,P2.bmp,Bad,Yes,n,n,1,689
13,25,right,female,2,1,坏人,P2.bmp,Bad,Yes,n,n,1,755
13,25,right,female,2,2,坏人,H3.bmp,Normal,No,m,m,1,727
13,25,right,female,2,3,常人,P3.bmp,Bad,No,m,m,1,760
13,25,right,female,2,4,坏人,P2.bmp,Bad,Yes,n,m,0,779
13,25,right,female,2,5,坏人,Trap1.bmp,Good,No,m,m,1,756
13,25,right,female,2,6,坏人,H2.bmp,Normal,No,m,n,0,685
13,25,right,female,2,7,好人,Trap2.bmp,Good,Yes,n,n,1,704
13,25,right,female,2,8,好人,Trap2.bmp,Good,Yes,n,n,1,649
13,25,right,female,2,9,坏人,P4.bmp,Bad,Yes,n,m,0,810
13,25,right,female,2,10,好人,Trap3.bmp,Good,Yes,n,n,1,695
13,25,right,female,2,11,好人,Trap4.bmp,Good,Yes,n,n,1,752
13,25,right,female,2,12,好人,P4.bmp,Bad,No,m,m,1,627
13,25,right,female,2,13,常人,H1.bmp,Normal,Yes,n,m,0,876
13,25,right,female,2,14,好人,Trap1.bmp,Good,Yes,n,n,1,618
13,25,right,female,2,15,坏人,H4.bmp,Normal,No,m,n,0,619
13,25,right,female,2,16,坏人,Trap4.bmp,Good,No,m,m,1,793
13,25,right,female,2,17,好人,Trap4.bmp,Good,Yes,n,m,0,626
13,25,right,female,2,18,常人,H2.bmp,Normal,Yes,n,n,1,870
13,25,right,female,2,19,常人,P2.bmp,Bad,No,m,m,1,703
13,25,right,female,2,20,好人,Trap2.bmp,Good,Yes,n,n,1,626
13,25,right,female,2,21,常人,H2.bmp,Normal,Yes,n,n,1,776
13,25,right,female,2,22,坏人,P4.bmp,Bad,Yes,n,m,0,697
13,25,right,female,2,23,坏人,Trap2.bmp,Good,No,m,m,1,679
13,25,right,female,2,24,常人,H3.bmp,Normal,Yes,n,n,1,699
13,25,right,female,2,25,好人,P1.bmp,Bad,No,m,m,1,793
13,25,right,female,2,26,好人,Trap3.bmp,Good,Yes,n,n,1,690
13,25,right,female,2,27,常人,P4.bmp,Bad,No,m,m,1,741
13,25,right,female,2,28,好人,Trap1.bmp,Good,Yes,n,n,1,718
13,25,right,female,2,29,常人,P1.bmp,Bad,No,m,m,1,724
13,25,right,female,2,30,好人,H3.bmp,Normal,No,m,m,1,656
13,25,right,female,2,31,常人,Trap2.bmp,Good,No,m,n,0,694
13,25,right,female,2,32,常人,H4.bmp,Normal,Yes,n,m,0,783
13,25,right,female,2,33,常人,Trap1.bmp,Good,No,m,m,1,672
13,25,right,female,2,34,坏人,P2.bmp,Bad,Yes,n,n,1,770
13,25,right,female,2,35,好人,H4.bmp,Normal,No,m,m,1,795
13,25,right,female,2,36,坏人,P4.bmp,Bad,Yes,n,m,0,657
13,25,right,female,2,37,常人,Trap3.bmp,Good,No,m,n,0,658
13,25,right,female,2,38,常人,Trap4.bmp,Good,No,m,m,1,936
13,25,right,female,2,39,常人,P4.bmp,Bad,No,m,m,1,692
13,25,right,female,2,40,坏人,P1.bmp,Bad,Yes,n,n,1,746
13,25,right,female,2,41,常人,Trap4.bmp,Good,No,m,n,0,659
13,25,right,female,2,42,常人,H3.bmp,Normal,Yes,n,m,0,659
13,25,right,female,2,43,坏人,P3.bmp,Bad,Yes,n,n,1,847
13,25,right,female,2,44,好人,P1.bmp,Bad,No,m,m,1,688
13,25,right,female,2,45,坏人,P1.bmp,Bad,Yes,n,m,0,667
13,25,right,female,2,46,好人,P3.bmp,Bad,No,m,m,1,639
13,25,right,female,2,47,坏人,P3.bmp,Bad,Yes,n,n,1,768
13,25,right,female,2,48,坏人,Trap3.bmp,Good,No,m,m,1,648
13,25,right,female,2,49,坏人,H2.bmp,Normal,No,m,n,0,673
13,25,right,female,2,50,常人,H1.bmp,Normal,Yes,n,m,0,589
13,25,right,female,2,51,坏人,Trap3.bmp,Good,No,m,n,0,685
13,25,right,female,2,52,好人,H1.bmp,Normal,No,m,m,1,790
13,25,right,female,2,53,坏人,H1.bmp,Normal,No,m,n,0,620
13,25,right,female,2,54,常人,H4.bmp,Normal,Yes,n,n,1,677
13,25,right,female,2,55,好人,P2.bmp,Bad,No,m,m,1,595
13,25,right,female,2,56,好人,Trap1.bmp,Good,Yes,n,m,0,833
13,25,right,female,2,57,好人,H2.bmp,Normal,No,m,m,1,705
13,25,right,female,2,58,常人,H3.bmp,Normal,Yes,n,n,1,642
13,25,right,female,2,59,常人,H4.bmp,Normal,Yes,n,m,0,760
13,25,right,female,2,60,好人,H1.bmp,Normal,No,m,m,1,636
13,25,right,female,3,1,坏人,Trap3.bmp,Good,No,m,m,1,652
13,25,right,female,3,2,好人,P3.bmp,Bad,No,m,m,1,674
13,25,right,female,3,3,常人,P4.bmp,Bad,No,m,,0,0
13,25,right,female,3,4,常人,H3.bmp,Normal,Yes,n,m,0,751
13,25,right,female,3,5,常人,P4.bmp,Bad,No,m,m,1,725
13,25,right,female,3,6,常人,H2.bmp,Normal,Yes,n,n,1,718
13,25,right,female,3,7,好人,P4.bmp,Bad,No,m,m,1,689
13,25,right,female,3,8,坏人,P4.bmp,Bad,Yes,n,m,0,623
13,25,right,female,3,9,坏人,H3.bmp,Normal,No,m,m,1,664
13,25,right,female,3,10,好人,Trap3.bmp,Good,Yes,n,n,1,644
13,25,right,female,3,11,常人,H2.bmp,Normal,Yes,n,n,1,674
13,25,right,female,3,12,好人,Trap2.bmp,Good,Yes,n,m,0,758
13,25,right,female,3,13,好人,Trap2.bmp,Good,Yes,n,n,1,652
13,25,right,female,3,14,好人,Trap1.bmp,Good,Yes,n,n,1,642
13,25,right,female,3,15,好人,Trap1.bmp,Good,Yes,n,n,1,599
13,25,right,female,3,16,常人,H3.bmp,Normal,Yes,n,m,0,771
13,25,right,female,3,17,常人,H1.bmp,Normal,Yes,n,n,1,889
13,25,right,female,3,18,常人,P3.bmp,Bad,No,m,m,1,684
13,25,right,female,3,19,坏人,P1.bmp,Bad,Yes,n,n,1,619
13,25,right,female,3,20,好人,H3.bmp,Normal,No,m,m,1,841
13,25,right,female,3,21,坏人,Trap3.bmp,Good,No,m,m,1,735
13,25,right,female,3,22,常人,H4.bmp,Normal,Yes,n,n,1,656
13,25,right,female,3,23,好人,Trap4.bmp,Good,Yes,n,n,1,608
13,25,right,female,3,24,好人,H2.bmp,Normal,No,m,m,1,748
13,25,right,female,3,25,坏人,H2.bmp,Normal,No,m,m,1,698
13,25,right,female,3,26,坏人,P4.bmp,Bad,Yes,n,n,1,670
13,25,right,female,3,27,好人,P1.bmp,Bad,No,m,m,1,649
13,25,right,female,3,28,坏人,Trap1.bmp,Good,No,m,m,1,645
13,25,right,female,3,29,坏人,H2.bmp,Normal,No,m,n,0,685
13,25,right,female,3,30,好人,Trap1.bmp,Good,Yes,n,n,1,566
13,25,right,female,3,31,坏人,H1.bmp,Normal,No,m,n,0,604
13,25,right,female,3,32,常人,Trap3.bmp,Good,No,m,m,1,592
13,25,right,female,3,33,常人,Trap4.bmp,Good,No,m,n,0,681
13,25,right,female,3,34,坏人,H4.bmp,Normal,No,m,m,1,823
13,25,right,female,3,35,好人,H1.bmp,Normal,No,m,m,1,616
13,25,right,female,3,36,好人,P2.bmp,Bad,No,m,n,0,608
13,25,right,female,3,37,好人,H1.bmp,Normal,No,m,m,1,502
13,25,right,female,3,38,坏人,P4.bmp,Bad,Yes,n,n,1,663
13,25,right,female,3,39,坏人,Trap2.bmp,Good,No,m,m,1,850
13,25,right,female,3,40,坏人,P1.bmp,Bad,Yes,n,m,0,672
13,25,right,female,3,41,坏人,P3.bmp,Bad,Yes,n,n,1,630
13,25,right,female,3,42,好人,Trap2.bmp,Good,Yes,n,m,0,644
13,25,right,female,3,43,好人,Trap4.bmp,Good,Yes,n,n,1,573
13,25,right,female,3,44,常人,H4.bmp,Normal,Yes,n,n,1,793
13,25,right,female,3,45,坏人,P2.bmp,Bad,Yes,n,m,0,700
13,25,right,female,3,46,常人,P1.bmp,Bad,No,m,m,1,661
13,25,right,female,3,47,坏人,P2.bmp,Bad,Yes,n,m,0,654
13,25,right,female,3,48,好人,Trap3.bmp,Good,Yes,n,n,1,631
13,25,right,female,3,49,常人,P2.bmp,Bad,No,m,m,1,762
13,25,right,female,3,50,常人,Trap1.bmp,Good,No,m,m,1,691
13,25,right,female,3,51,坏人,P3.bmp,Bad,Yes,n,n,1,612
13,25,right,female,3,52,常人,Trap4.bmp,Good,No,m,n,0,690
13,25,right,female,3,53,常人,H4.bmp,Normal,Yes,n,m,0,837
13,25,right,female,3,54,坏人,Trap4.bmp,Good,No,m,m,1,643
13,25,right,female,3,55,好人,P1.bmp,Bad,No,m,m,1,751
13,25,right,female,3,56,常人,Trap2.bmp,Good,No,m,n,0,720
13,25,right,female,3,57,常人,H3.bmp,Normal,Yes,n,m,0,649
13,25,right,female,3,58,坏人,P2.bmp,Bad,Yes,n,n,1,673
13,25,right,female,3,59,好人,H4.bmp,Normal,No,m,m,1,594
13,25,right,female,3,60,常人,H1.bmp,Normal,Yes,n,m,0,744
13,25,right,female,4,1,坏人,P1.bmp,Bad,Yes,n,n,1,689
13,25,right,female,4,2,坏人,H2.bmp,Normal,No,m,m,1,599
13,25,right,female,4,3,好人,P1.bmp,Bad,No,m,m,1,627
13,25,right,female,4,4,常人,Trap3.bmp,Good,No,m,m,1,801
13,25,right,female,4,5,坏人,P2.bmp,Bad,Yes,n,n,1,786
13,25,right,female,4,6,好人,P1.bmp,Bad,No,m,m,1,587
13,25,right,female,4,7,常人,P4.bmp,Bad,No,m,n,0,705
13,25,right,female,4,8,好人,Trap3.bmp,Good,Yes,n,n,1,637
13,25,right,female,4,9,坏人,P2.bmp,Bad,Yes,n,n,1,723
13,25,right,female,4,10,常人,H4.bmp,Normal,Yes,n,n,1,750
13,25,right,female,4,11,坏人,Trap3.bmp,Good,No,m,m,1,666
13,25,right,female,4,12,好人,P2.bmp,Bad,No,m,m,1,701
13,25,right,female,4,13,常人,Trap4.bmp,Good,No,m,m,1,641
13,25,right,female,4,14,好人,Trap2.bmp,Good,Yes,n,n,1,666
13,25,right,female,4,15,常人,H4.bmp,Normal,Yes,n,n,1,640
13,25,right,female,4,16,坏人,P3.bmp,Bad,Yes,n,m,0,691
13,25,right,female,4,17,常人,H3.bmp,Normal,Yes,n,n,1,761
13,25,right,female,4,18,坏人,H3.bmp,Normal,No,m,m,1,879
13,25,right,female,4,19,好人,Trap1.bmp,Good,Yes,n,n,1,800
13,25,right,female,4,20,常人,H1.bmp,Normal,Yes,n,m,0,913
13,25,right,female,4,21,坏人,Trap1.bmp,Good,No,m,n,0,978
13,25,right,female,4,22,好人,P4.bmp,Bad,No,m,m,1,778
13,25,right,female,4,23,常人,P2.bmp,Bad,No,m,m,1,701
13,25,right,female,4,24,常人,P4.bmp,Bad,No,m,m,1,742
13,25,right,female,4,25,坏人,P2.bmp,Bad,Yes,n,n,1,700
13,25,right,female,4,26,好人,Trap2.bmp,Good,Yes,n,n,1,645
13,25,right,female,4,27,好人,Trap1.bmp,Good,Yes,n,n,1,673
13,25,right,female,4,28,坏人,Trap3.bmp,Good,No,m,m,1,623
13,25,right,female,4,29,常人,H2.bmp,Normal,Yes,n,m,0,850
13,25,right,female,4,30,好人,Trap4.bmp,Good,Yes,n,n,1,683
13,25,right,female,4,31,常人,H3.bmp,Normal,Yes,n,m,0,844
13,25,right,female,4,32,常人,H4.bmp,Normal,Yes,n,n,1,797
13,25,right,female,4,33,坏人,H1.bmp,Normal,No,m,m,1,865
13,25,right,female,4,34,坏人,Trap4.bmp,Good,No,m,n,0,705
13,25,right,female,4,35,常人,P1.bmp,Bad,No,m,m,1,770
13,25,right,female,4,36,坏人,H4.bmp,Normal,No,m,m,1,798
13,25,right,female,4,37,常人,H2.bmp,Normal,Yes,n,n,1,825
13,25,right,female,4,38,好人,Trap3.bmp,Good,Yes,n,n,1,636
13,25,right,female,4,39,坏人,P4.bmp,Bad,Yes,n,n,1,723
13,25,right,female,4,40,好人,H3.bmp,Normal,No,m,m,1,756
13,25,right,female,4,41,常人,H1.bmp,Normal,Yes,n,m,0,783
13,25,right,female,4,42,好人,H1.bmp,Normal,No,m,m,1,1032
13,25,right,female,4,43,好人,H1.bmp,Normal,No,m,m,1,681
13,25,right,female,4,44,好人,Trap2.bmp,Good,Yes,n,n,1,687
13,25,right,female,4,45,好人,Trap1.bmp,Good,Yes,n,n,1,752
13,25,right,female,4,46,好人,H2.bmp,Normal,No,m,m,1,733
13,25,right,female,4,47,常人,P3.bmp,Bad,No,m,n,0,897
13,25,right,female,4,48,好人,H4.bmp,Normal,No,m,n,0,988
13,25,right,female,4,49,好人,Trap4.bmp,Good,Yes,n,n,1,650
13,25,right,female,4,50,坏人,P4.bmp,Bad,Yes,n,n,1,803
13,25,right,female,4,51,坏人,P3.bmp,Bad,Yes,n,n,1,703
13,25,right,female,4,52,坏人,P1.bmp,Bad,Yes,n,n,1,826
13,25,right,female,4,53,坏人,P4.bmp,Bad,Yes,n,n,1,691
13,25,right,female,4,54,常人,Trap2.bmp,Good,No,m,m,1,793
13,25,right,female,4,55,常人,H3.bmp,Normal,Yes,n,m,0,863
13,25,right,female,4,56,常人,Trap4.bmp,Good,No,m,n,0,659
13,25,right,female,4,57,常人,Trap1.bmp,Good,No,m,m,1,646
13,25,right,female,4,58,坏人,H2.bmp,Normal,No,m,m,1,759
13,25,right,female,4,59,好人,P3.bmp,Bad,No,m,n,0,688
13,25,right,female,4,60,坏人,Trap2.bmp,Good,No,m,m,1,692
13,25,right,female,5,1,坏人,Trap3.bmp,Good,No,m,m,1,614
13,25,right,female,5,2,好人,Trap1.bmp,Good,Yes,n,m,0,748
13,25,right,female,5,3,常人,P2.bmp,Bad,No,m,m,1,772
13,25,right,female,5,4,常人,H1.bmp,Normal,Yes,n,m,0,920
13,25,right,female,5,5,好人,H2.bmp,Normal,No,m,m,1,736
13,25,right,female,5,6,好人,P1.bmp,Bad,No,m,m,1,766
13,25,right,female,5,7,好人,Trap1.bmp,Good,Yes,n,n,1,732
13,25,right,female,5,8,常人,H4.bmp,Normal,Yes,n,n,1,741
13,25,right,female,5,9,好人,P2.bmp,Bad,No,m,m,1,742
13,25,right,female,5,10,坏人,P2.bmp,Bad,Yes,n,n,1,682
13,25,right,female,5,11,坏人,P3.bmp,Bad,Yes,n,n,1,618
13,25,right,female,5,12,坏人,H2.bmp,Normal,No,m,m,1,694
13,25,right,female,5,13,坏人,P1.bmp,Bad,Yes,n,n,1,924
13,25,right,female,5,14,坏人,H3.bmp,Normal,No,m,n,0,573
13,25,right,female,5,15,坏人,P4.bmp,Bad,Yes,n,n,1,744
13,25,right,female,5,16,坏人,P2.bmp,Bad,Yes,n,n,1,609
13,25,right,female,5,17,好人,Trap2.bmp,Good,Yes,n,n,1,863
13,25,right,female,5,18,好人,Trap2.bmp,Good,Yes,n,n,1,699
13,25,right,female,5,19,常人,H2.bmp,Normal,Yes,n,m,0,753
13,25,right,female,5,20,坏人,H1.bmp,Normal,No,m,m,1,724
13,25,right,female,5,21,常人,Trap1.bmp,Good,No,m,m,1,760
13,25,right,female,5,22,常人,H2.bmp,Normal,Yes,n,m,0,705
13,25,right,female,5,23,好人,P4.bmp,Bad,No,m,m,1,791
13,25,right,female,5,24,好人,Trap2.bmp,Good,Yes,n,n,1,632
13,25,right,female,5,25,常人,H4.bmp,Normal,Yes,n,n,1,918
13,25,right,female,5,26,常人,Trap4.bmp,Good,No,m,m,1,628
13,25,right,female,5,27,坏人,Trap1.bmp,Good,No,m,m,1,847
13,25,right,female,5,28,好人,Trap3.bmp,Good,Yes,n,m,0,699
13,25,right,female,5,29,常人,H3.bmp,Normal,Yes,n,m,0,853
13,25,right,female,5,30,坏人,P3.bmp,Bad,Yes,n,n,1,692
13,25,right,female,5,31,常人,P4.bmp,Bad,No,m,m,1,938
13,25,right,female,5,32,坏人,P4.bmp,Bad,Yes,n,m,0,680
13,25,right,female,5,33,好人,H3.bmp,Normal,No,m,m,1,635
13,25,right,female,5,34,常人,P1.bmp,Bad,No,m,m,1,687
13,25,right,female,5,35,常人,Trap2.bmp,Good,No,m,n,0,677
13,25,right,female,5,36,好人,P1.bmp,Bad,No,m,m,1,712
13,25,right,female,5,37,好人,H4.bmp,Normal,No,m,m,1,612
13,25,right,female,5,38,坏人,H4.bmp,Normal,No,m,m,1,709
13,25,right,female,5,39,坏人,Trap4.bmp,Good,No,m,m,1,648
13,25,right,female,5,40,好人,P3.bmp,Bad,No,m,n,0,705
13,25,right,female,5,41,坏人,P2.bmp,Bad,Yes,n,n,1,685
13,25,right,female,5,42,常人,P4.bmp,Bad,No,m,m,1,632
13,25,right,female,5,43,常人,H4.bmp,Normal,Yes,n,n,1,849
13,25,right,female,5,44,坏人,Trap2.bmp,Good,No,m,m,1,666
13,25,right,female,5,45,坏人,P4.bmp,Bad,Yes,n,n,1,739
13,25,right,female,5,46,常人,H1.bmp,Normal,Yes,n,n,1,694
13,25,right,female,5,47,好人,Trap4.bmp,Good,Yes,n,n,1,650
13,25,right,female,5,48,坏人,H2.bmp,Normal,No,m,m,1,874
13,25,right,female,5,49,坏人,P1.bmp,Bad,Yes,n,n,1,667
13,25,right,female,5,50,坏人,Trap3.bmp,Good,No,m,m,1,668
13,25,right,female,5,51,常人,Trap3.bmp,Good,No,m,m,1,698
13,25,right,female,5,52,常人,H3.bmp,Normal,Yes,n,m,0,887
13,25,right,female,5,53,好人,Trap1.bmp,Good,Yes,n,n,1,686
13,25,right,female,5,54,常人,P3.bmp,Bad,No,m,m,1,852
13,25,right,female,5,55,好人,H1.bmp,Normal,No,m,m,1,626
13,25,right,female,5,56,好人,H1.bmp,Normal,No,m,m,1,630
13,25,right,female,5,57,好人,Trap4.bmp,Good,Yes,n,n,1,614
13,25,right,female,5,58,常人,H3.bmp,Normal,Yes,n,m,0,613
13,25,right,female,5,59,好人,Trap3.bmp,Good,Yes,n,n,1,640
13,25,right,female,5,60,常人,Trap4.bmp,Good,No,m,m,1,644
13,25,right,female,6,1,好人,P4.bmp,Bad,No,m,m,1,813
13,25,right,female,6,2,坏人,P2.bmp,Bad,Yes,n,m,0,662
13,25,right,female,6,3,好人,Trap4.bmp,Good,Yes,n,n,1,610
13,25,right,female,6,4,常人,P1.bmp,Bad,No,m,m,1,728
13,25,right,female,6,5,常人,Trap4.bmp,Good,No,m,m,1,713
13,25,right,female,6,6,坏人,Trap4.bmp,Good,No,m,m,1,689
13,25,right,female,6,7,好人,H2.bmp,Normal,No,m,m,1,773
13,25,right,female,6,8,坏人,P1.bmp,Bad,Yes,n,n,1,696
13,25,right,female,6,9,好人,P1.bmp,Bad,No,m,m,1,767
13,25,right,female,6,10,好人,Trap1.bmp,Good,Yes,n,n,1,751
13,25,right,female,6,11,好人,Trap2.bmp,Good,Yes,n,m,0,823
13,25,right,female,6,12,常人,H4.bmp,Normal,Yes,n,n,1,720
13,25,right,female,6,13,坏人,P2.bmp,Bad,Yes,n,m,0,868
13,25,right,female,6,14,好人,H1.bmp,Normal,No,m,m,1,754
13,25,right,female,6,15,常人,H3.bmp,Normal,Yes,n,n,1,784
13,25,right,female,6,16,常人,H1.bmp,Normal,Yes,n,n,1,764
13,25,right,female,6,17,好人,P3.bmp,Bad,No,m,m,1,743
13,25,right,female,6,18,坏人,P1.bmp,Bad,Yes,n,n,1,859
13,25,right,female,6,19,坏人,P4.bmp,Bad,Yes,n,n,1,708
13,25,right,female,6,20,常人,H4.bmp,Normal,Yes,n,n,1,722
13,25,right,female,6,21,坏人,Trap2.bmp,Good,No,m,m,1,866
13,25,right,female,6,22,好人,Trap1.bmp,Good,Yes,n,n,1,665
13,25,right,female,6,23,好人,P2.bmp,Bad,No,m,m,1,705
13,25,right,female,6,24,坏人,P3.bmp,Bad,Yes,n,n,1,637
13,25,right,female,6,25,常人,H3.bmp,Normal,Yes,n,m,0,723
13,25,right,female,6,26,好人,H1.bmp,Normal,No,m,m,1,724
13,25,right,female,6,27,常人,H2.bmp,Normal,Yes,n,n,1,794
13,25,right,female,6,28,坏人,Trap1.bmp,Good,No,m,m,1,742
13,25,right,female,6,29,坏人,P4.bmp,Bad,Yes,n,n,1,727
13,25,right,female,6,30,常人,Trap4.bmp,Good,No,m,m,1,914
13,25,right,female,6,31,坏人,H2.bmp,Normal,No,m,m,1,779
13,25,right,female,6,32,常人,H2.bmp,Normal,Yes,n,m,0,1038
13,25,right,female,6,33,常人,Trap3.bmp,Good,No,m,m,1,836
13,25,right,female,6,34,好人,P1.bmp,Bad,No,m,n,0,903
13,25,right,female,6,35,坏人,H3.bmp,Normal,No,m,m,1,736
13,25,right,female,6,36,常人,P2.bmp,Bad,No,m,n,0,782
13,25,right,female,6,37,好人,Trap2.bmp,Good,Yes,n,n,1,650
13,25,right,female,6,38,好人,H4.bmp,Normal,No,m,m,1,682
13,25,right,female,6,39,好人,Trap2.bmp,Good,Yes,n,n,1,638
13,25,right,female,6,40,坏人,P2.bmp,Bad,Yes,n,n,1,935
13,25,right,female,6,41,常人,P3.bmp,Bad,No,m,m,1,677
13,25,right,female,6,42,坏人,P4.bmp,Bad,Yes,n,n,1,600
13,25,right,female,6,43,好人,Trap3.bmp,Good,Yes,n,m,0,641
13,25,right,female,6,44,好人,Trap4.bmp,Good,Yes,n,n,1,597
13,25,right,female,6,45,常人,P4.bmp,Bad,No,m,m,1,830
13,25,right,female,6,46,坏人,Trap3.bmp,Good,No,m,m,1,753
13,25,right,female,6,47,常人,P4.bmp,Bad,No,m,m,1,775
13,25,right,female,6,48,好人,Trap3.bmp,Good,Yes,n,n,1,747
13,25,right,female,6,49,坏人,H4.bmp,Normal,No,m,m,1,830
13,25,right,female,6,50,好人,H3.bmp,Normal,No,m,m,1,732
13,25,right,female,6,51,常人,Trap1.bmp,Good,No,m,n,0,805
13,25,right,female,6,52,常人,Trap2.bmp,Good,No,m,m,1,651
13,25,right,female,6,53,坏人,Trap3.bmp,Good,No,m,m,1,714
13,25,right,female,6,54,坏人,H1.bmp,Normal,No,m,n,0,829
13,25,right,female,6,55,好人,Trap1.bmp,Good,Yes,n,n,1,726
13,25,right,female,6,56,常人,H1.bmp,Normal,Yes,n,m,0,836
13,25,right,female,6,57,坏人,H2.bmp,Normal,No,m,m,1,722
13,25,right,female,6,58,坏人,P3.bmp,Bad,Yes,n,n,1,702
13,25,right,female,6,59,常人,H4.bmp,Normal,Yes,n,m,0,661
13,25,right,female,6,60,常人,H3.bmp,Normal,Yes,n,m,0,694
14,24,right,male,,1,坏人,H2.bmp,Bad,Yes,m,m,1,628
14,24,right,male,,2,常人,P4.bmp,Good,No,n,n,1,562
14,24,right,male,,3,常人,H4.bmp,Bad,No,n,m,0,801
14,24,right,male,,4,坏人,Trap2.bmp,Normal,No,n,n,1,790
14,24,right,male,,5,坏人,P2.bmp,Good,No,n,n,1,941
14,24,right,male,,6,好人,Trap4.bmp,Normal,No,n,m,0,936
14,24,right,male,,7,好人,H1.bmp,Bad,No,n,n,1,780
14,24,right,male,,8,常人,Trap1.bmp,Normal,Yes,m,n,0,796
14,24,right,male,,9,坏人,H3.bmp,Bad,Yes,m,m,1,642
14,24,right,male,,10,常人,Trap3.bmp,Normal,Yes,m,m,1,630
14,24,right,male,,11,好人,P1.bmp,Good,Yes,m,m,1,791
14,24,right,male,,12,好人,P3.bmp,Good,Yes,m,m,1,495
14,24,right,male,,13,好人,P1.bmp,Good,Yes,m,m,1,697
14,24,right,male,,14,常人,P4.bmp,Good,No,n,n,1,610
14,24,right,male,,15,坏人,Trap2.bmp,Normal,No,n,m,0,571
14,24,right,male,,16,好人,P3.bmp,Good,Yes,m,m,1,636
14,24,right,male,,17,常人,Trap3.bmp,Normal,Yes,m,n,0,619
14,24,right,male,,18,坏人,P2.bmp,Good,No,n,n,1,660
14,24,right,male,,19,好人,Trap4.bmp,Normal,No,n,n,1,1002
14,24,right,male,,20,常人,Trap1.bmp,Normal,Yes,m,n,0,499
14,24,right,male,,21,坏人,H2.bmp,Bad,Yes,m,m,1,628
14,24,right,male,,22,好人,H1.bmp,Bad,No,n,n,1,709
14,24,right,male,,23,坏人,H3.bmp,Bad,Yes,m,m,1,885
14,24,right,male,,24,常人,H4.bmp,Bad,No,n,n,1,513
14,24,right,male,1,1,常人,Trap2.bmp,Normal,Yes,m,n,0,575
14,24,right,male,1,2,常人,Trap4.bmp,Normal,Yes,m,m,1,618
14,24,right,male,1,3,坏人,H4.bmp,Bad,Yes,m,m,1,550
14,24,right,male,1,4,好人,P4.bmp,Good,Yes,m,m,1,719
14,24,right,male,1,5,常人,Trap3.bmp,Normal,Yes,m,m,1,552
14,24,right,male,1,6,常人,H4.bmp,Bad,No,n,n,1,473
14,24,right,male,1,7,常人,P3.bmp,Good,No,n,n,1,561
14,24,right,male,1,8,坏人,H2.bmp,Bad,Yes,m,m,1,578
14,24,right,male,1,9,坏人,H1.bmp,Bad,Yes,m,m,1,443
14,24,right,male,1,10,好人,P2.bmp,Good,Yes,m,n,0,524
14,24,right,male,1,11,坏人,Trap2.bmp,Normal,No,n,n,1,868
14,24,right,male,1,12,好人,Trap2.bmp,Normal,No,n,n,1,594
14,24,right,male,1,13,好人,H1.bmp,Bad,No,n,n,1,725
14,24,right,male,1,14,常人,P4.bmp,Good,No,n,n,1,825
14,24,right,male,1,15,好人,P1.bmp,Good,Yes,m,m,1,556
14,24,right,male,1,16,好人,Trap4.bmp,Normal,No,n,n,1,685
14,24,right,male,1,17,常人,Trap4.bmp,Normal,Yes,m,m,1,1049
14,24,right,male,1,18,常人,H4.bmp,Bad,No,n,n,1,466
14,24,right,male,1,19,常人,H1.bmp,Bad,No,n,n,1,533
14,24,right,male,1,20,坏人,Trap1.bmp,Normal,No,n,m,0,662
14,24,right,male,1,21,好人,H4.bmp,Bad,No,n,n,1,1065
14,24,right,male,1,22,好人,P1.bmp,Good,Yes,m,m,1,861
14,24,right,male,1,23,坏人,Trap2.bmp,Normal,No,n,n,1,707
14,24,right,male,1,24,坏人,H4.bmp,Bad,Yes,m,m,1,556
14,24,right,male,1,25,坏人,P3.bmp,Good,No,n,n,1,604
14,24,right,male,1,26,好人,P4.bmp,Good,Yes,m,m,1,608
14,24,right,male,1,27,常人,P4.bmp,Good,No,n,n,1,483
14,24,right,male,1,28,好人,Trap1.bmp,Normal,No,n,n,1,687
14,24,right,male,1,29,坏人,H2.bmp,Bad,Yes,m,m,1,456
14,24,right,male,1,30,坏人,H2.bmp,Bad,Yes,m,m,1,555
14,24,right,male,1,31,常人,Trap1.bmp,Normal,Yes,m,m,1,498
14,24,right,male,1,32,好人,P2.bmp,Good,Yes,m,m,1,434
14,24,right,male,1,33,常人,Trap3.bmp,Normal,Yes,m,m,1,545
14,24,right,male,1,34,坏人,H1.bmp,Bad,Yes,m,n,0,431
14,24,right,male,1,35,常人,P1.bmp,Good,No,n,n,1,442
14,24,right,male,1,36,常人,Trap3.bmp,Normal,Yes,m,m,1,528
14,24,right,male,1,37,坏人,H3.bmp,Bad,Yes,m,m,1,558
14,24,right,male,1,38,好人,P2.bmp,Good,Yes,m,m,1,466
14,24,right,male,1,39,坏人,P3.bmp,Good,No,n,n,1,731
14,24,right,male,1,40,坏人,P2.bmp,Good,No,n,n,1,534
14,24,right,male,1,41,坏人,Trap3.bmp,Normal,No,n,m,0,575
14,24,right,male,1,42,好人,P3.bmp,Good,Yes,m,m,1,467
14,24,right,male,1,43,好人,Trap1.bmp,Normal,No,n,n,1,573
14,24,right,male,1,44,常人,Trap1.bmp,Normal,Yes,m,m,1,619
14,24,right,male,1,45,好人,H2.bmp,Bad,No,n,m,0,444
14,24,right,male,1,46,坏人,Trap4.bmp,Normal,No,n,n,1,511
14,24,right,male,1,47,好人,H3.bmp,Bad,No,n,n,1,672
14,24,right,male,1,48,坏人,H3.bmp,Bad,Yes,m,m,1,425
14,24,right,male,1,49,坏人,H4.bmp,Bad,Yes,m,m,1,372
14,24,right,male,1,50,好人,Trap3.bmp,Normal,No,n,n,1,549
14,24,right,male,1,51,常人,H3.bmp,Bad,No,n,n,1,529
14,24,right,male,1,52,常人,Trap2.bmp,Normal,Yes,m,m,1,410
14,24,right,male,1,53,常人,P2.bmp,Good,No,n,n,1,424
14,24,right,male,1,54,好人,P1.bmp,Good,Yes,m,m,1,531
14,24,right,male,1,55,常人,H2.bmp,Bad,No,n,n,1,433
14,24,right,male,1,56,好人,H1.bmp,Bad,No,n,n,1,714
14,24,right,male,1,57,坏人,P1.bmp,Good,No,n,n,1,808
14,24,right,male,1,58,坏人,P4.bmp,Good,No,n,m,0,524
14,24,right,male,1,59,好人,P3.bmp,Good,Yes,m,m,1,535
14,24,right,male,1,60,常人,Trap4.bmp,Normal,Yes,m,n,0,443
14,24,right,male,2,1,坏人,P3.bmp,Good,No,n,m,0,562
14,24,right,male,2,2,坏人,Trap2.bmp,Normal,No,n,m,0,696
14,24,right,male,2,3,坏人,P2.bmp,Good,No,n,n,1,625
14,24,right,male,2,4,好人,Trap2.bmp,Normal,No,n,n,1,717
14,24,right,male,2,5,坏人,Trap2.bmp,Normal,No,n,n,1,523
14,24,right,male,2,6,坏人,Trap1.bmp,Normal,No,n,n,1,428
14,24,right,male,2,7,常人,H4.bmp,Bad,No,n,n,1,609
14,24,right,male,2,8,坏人,Trap4.bmp,Normal,No,n,n,1,490
14,24,right,male,2,9,坏人,H4.bmp,Bad,Yes,m,m,1,528
14,24,right,male,2,10,常人,H2.bmp,Bad,No,n,n,1,505
14,24,right,male,2,11,常人,P4.bmp,Good,No,n,n,1,551
14,24,right,male,2,12,好人,H1.bmp,Bad,No,n,n,1,650
14,24,right,male,2,13,好人,P4.bmp,Good,Yes,m,m,1,454
14,24,right,male,2,14,好人,P3.bmp,Good,Yes,m,m,1,431
14,24,right,male,2,15,常人,Trap3.bmp,Normal,Yes,m,m,1,517
14,24,right,male,2,16,坏人,H2.bmp,Bad,Yes,m,m,1,483
14,24,right,male,2,17,好人,H3.bmp,Bad,No,n,n,1,694
14,24,right,male,2,18,好人,P4.bmp,Good,Yes,m,m,1,599
14,24,right,male,2,19,常人,Trap3.bmp,Normal,Yes,m,m,1,464
14,24,right,male,2,20,好人,Trap1.bmp,Normal,No,n,n,1,422
14,24,right,male,2,21,好人,H1.bmp,Bad,No,n,m,0,375
14,24,right,male,2,22,坏人,P3.bmp,Good,No,n,n,1,480
14,24,right,male,2,23,常人,P2.bmp,Good,No,n,n,1,638
14,24,right,male,2,24,好人,P2.bmp,Good,Yes,m,m,1,772
14,24,right,male,2,25,常人,Trap4.bmp,Normal,Yes,m,m,1,711
14,24,right,male,2,26,好人,P1.bmp,Good,Yes,m,m,1,544
14,24,right,male,2,27,坏人,P4.bmp,Good,No,n,n,1,588
14,24,right,male,2,28,坏人,H3.bmp,Bad,Yes,m,m,1,615
14,24,right,male,2,29,常人,Trap1.bmp,Normal,Yes,m,m,1,493
14,24,right,male,2,30,坏人,Trap3.bmp,Normal,No,n,n,1,491
14,24,right,male,2,31,好人,P1.bmp,Good,Yes,m,m,1,439
14,24,right,male,2,32,坏人,H1.bmp,Bad,Yes,m,m,1,464
14,24,right,male,2,33,好人,Trap3.bmp,Normal,No,n,n,1,537
14,24,right,male,2,34,常人,H3.bmp,Bad,No,n,n,1,612
14,24,right,male,2,35,常人,P3.bmp,Good,No,n,n,1,805
14,24,right,male,2,36,常人,Trap4.bmp,Normal,Yes,m,m,1,390
14,24,right,male,2,37,好人,H4.bmp,Bad,No,n,,0,0
14,24,right,male,2,38,常人,Trap1.bmp,Normal,Yes,m,m,1,453
14,24,right,male,2,39,好人,P1.bmp,Good,Yes,m,m,1,644
14,24,right,male,2,40,坏人,H4.bmp,Bad,Yes,m,m,1,400
14,24,right,male,2,41,好人,Trap1.bmp,Normal,No,n,n,1,489
14,24,right,male,2,42,坏人,H3.bmp,Bad,Yes,m,m,1,468
14,24,right,male,2,43,常人,H4.bmp,Bad,No,n,n,1,466
14,24,right,male,2,44,坏人,H2.bmp,Bad,Yes,m,m,1,518
14,24,right,male,2,45,常人,Trap3.bmp,Normal,Yes,m,m,1,463
14,24,right,male,2,46,常人,P1.bmp,Good,No,n,m,0,661
14,24,right,male,2,47,常人,Trap2.bmp,Normal,Yes,m,m,1,384
14,24,right,male,2,48,常人,H1.bmp,Bad,No,n,n,1,436
14,24,right,male,2,49,好人,Trap4.bmp,Normal,No,n,n,1,527
14,24,right,male,2,50,常人,Trap4.bmp,Normal,Yes,m,m,1,411
14,24,right,male,2,51,坏人,H4.bmp,Bad,Yes,m,m,1,401
14,24,right,male,2,52,好人,P2.bmp,Good,Yes,m,m,1,722
14,24,right,male,2,53,坏人,H1.bmp,Bad,Yes,m,m,1,418
14,24,right,male,2,54,坏人,H2.bmp,Bad,Yes,m,m,1,486
14,24,right,male,2,55,常人,Trap2.bmp,Normal,Yes,m,m,1,385
14,24,right,male,2,56,好人,H2.bmp,Bad,No,n,n,1,618
14,24,right,male,2,57,好人,P2.bmp,Good,Yes,m,m,1,539
14,24,right,male,2,58,好人,P3.bmp,Good,Yes,m,m,1,396
14,24,right,male,2,59,坏人,P1.bmp,Good,No,n,m,0,626
14,24,right,male,2,60,常人,P4.bmp,Good,No,n,n,1,485
14,24,right,male,3,1,常人,P2.bmp,Good,No,n,n,1,565
14,24,right,male,3,2,常人,Trap1.bmp,Normal,Yes,m,m,1,438
14,24,right,male,3,3,好人,P4.bmp,Good,Yes,m,m,1,393
14,24,right,male,3,4,坏人,P1.bmp,Good,No,n,n,1,495
14,24,right,male,3,5,好人,P4.bmp,Good,Yes,m,m,1,408
14,24,right,male,3,6,常人,Trap2.bmp,Normal,Yes,m,m,1,468
14,24,right,male,3,7,常人,H1.bmp,Bad,No,n,n,1,730
14,24,right,male,3,8,常人,Trap3.bmp,Normal,Yes,m,m,1,672
14,24,right,male,3,9,好人,Trap1.bmp,Normal,No,n,n,1,558
14,24,right,male,3,10,好人,P3.bmp,Good,Yes,m,m,1,380
14,24,right,male,3,11,好人,Trap1.bmp,Normal,No,n,n,1,469
14,24,right,male,3,12,坏人,Trap4.bmp,Normal,No,n,n,1,515
14,24,right,male,3,13,常人,Trap1.bmp,Normal,Yes,m,m,1,511
14,24,right,male,3,14,坏人,H1.bmp,Bad,Yes,m,m,1,632
14,24,right,male,3,15,坏人,P3.bmp,Good,No,n,n,1,473
14,24,right,male,3,16,常人,P4.bmp,Good,No,n,n,1,575
14,24,right,male,3,17,坏人,P4.bmp,Good,No,n,n,1,485
14,24,right,male,3,18,坏人,Trap1.bmp,Normal,No,n,n,1,515
14,24,right,male,3,19,坏人,P3.bmp,Good,No,n,n,1,460
14,24,right,male,3,20,常人,P3.bmp,Good,No,n,n,1,434
14,24,right,male,3,21,坏人,Trap2.bmp,Normal,No,n,n,1,477
14,24,right,male,3,22,常人,P4.bmp,Good,No,n,n,1,411
14,24,right,male,3,23,坏人,H4.bmp,Bad,Yes,m,m,1,588
14,24,right,male,3,24,常人,H3.bmp,Bad,No,n,n,1,482
14,24,right,male,3,25,常人,Trap4.bmp,Normal,Yes,m,m,1,457
14,24,right,male,3,26,好人,H1.bmp,Bad,No,n,n,1,503
14,24,right,male,3,27,好人,P1.bmp,Good,Yes,m,m,1,485
14,24,right,male,3,28,好人,P1.bmp,Good,Yes,m,m,1,550
14,24,right,male,3,29,常人,Trap2.bmp,Normal,Yes,m,m,1,487
14,24,right,male,3,30,常人,H2.bmp,Bad,No,n,n,1,437
14,24,right,male,3,31,常人,Trap4.bmp,Normal,Yes,m,m,1,499
14,24,right,male,3,32,好人,Trap4.bmp,Normal,No,n,n,1,462
14,24,right,male,3,33,常人,H4.bmp,Bad,No,n,n,1,529
14,24,right,male,3,34,坏人,P2.bmp,Good,No,n,m,0,391
14,24,right,male,3,35,坏人,Trap2.bmp,Normal,No,n,n,1,528
14,24,right,male,3,36,好人,P3.bmp,Good,Yes,m,m,1,459
14,24,right,male,3,37,坏人,H2.bmp,Bad,Yes,m,m,1,441
14,24,right,male,3,38,坏人,Trap3.bmp,Normal,No,n,n,1,424
14,24,right,male,3,39,好人,H3.bmp,Bad,No,n,n,1,576
14,24,right,male,3,40,好人,H2.bmp,Bad,No,n,n,1,489
14,24,right,male,3,41,好人,Trap3.bmp,Normal,No,n,n,1,605
14,24,right,male,3,42,坏人,H3.bmp,Bad,Yes,m,m,1,515
14,24,right,male,3,43,好人,H4.bmp,Bad,No,n,n,1,444
14,24,right,male,3,44,常人,Trap3.bmp,Normal,Yes,m,m,1,367
14,24,right,male,3,45,坏人,H1.bmp,Bad,Yes,m,m,1,413
14,24,right,male,3,46,常人,Trap3.bmp,Normal,Yes,m,m,1,444
14,24,right,male,3,47,坏人,H2.bmp,Bad,Yes,m,m,1,562
14,24,right,male,3,48,好人,P2.bmp,Good,Yes,m,m,1,552
14,24,right,male,3,49,常人,H4.bmp,Bad,No,n,n,1,425
14,24,right,male,3,50,好人,H1.bmp,Bad,No,n,n,1,372
14,24,right,male,3,51,好人,P2.bmp,Good,Yes,m,n,0,469
14,24,right,male,3,52,坏人,H2.bmp,Bad,Yes,m,m,1,419
14,24,right,male,3,53,好人,P1.bmp,Good,Yes,m,m,1,503
14,24,right,male,3,54,常人,P1.bmp,Good,No,n,n,1,447
14,24,right,male,3,55,好人,P2.bmp,Good,Yes,m,m,1,462
14,24,right,male,3,56,坏人,H4.bmp,Bad,Yes,m,m,1,500
14,24,right,male,3,57,坏人,H4.bmp,Bad,Yes,m,m,1,389
14,24,right,male,3,58,常人,Trap4.bmp,Normal,Yes,m,m,1,435
14,24,right,male,3,59,坏人,H3.bmp,Bad,Yes,m,m,1,604
14,24,right,male,3,60,好人,Trap2.bmp,Normal,No,n,m,0,386
14,24,right,male,4,1,坏人,P3.bmp,Good,No,n,n,1,517
14,24,right,male,4,2,好人,Trap3.bmp,Normal,No,n,n,1,502
14,24,right,male,4,3,坏人,H2.bmp,Bad,Yes,m,m,1,428
14,24,right,male,4,4,常人,Trap4.bmp,Normal,Yes,m,m,1,392
14,24,right,male,4,5,好人,P2.bmp,Good,Yes,m,m,1,398
14,24,right,male,4,6,好人,H1.bmp,Bad,No,n,n,1,623
14,24,right,male,4,7,坏人,Trap1.bmp,Normal,No,n,n,1,445
14,24,right,male,4,8,坏人,Trap2.bmp,Normal,No,n,n,1,408
14,24,right,male,4,9,好人,P4.bmp,Good,Yes,m,m,1,407
14,24,right,male,4,10,常人,Trap1.bmp,Normal,Yes,m,m,1,437
14,24,right,male,4,11,坏人,Trap2.bmp,Normal,No,n,n,1,446
14,24,right,male,4,12,坏人,Trap3.bmp,Normal,No,n,n,1,409
14,24,right,male,4,13,好人,P1.bmp,Good,Yes,m,m,1,365
14,24,right,male,4,14,常人,Trap3.bmp,Normal,Yes,m,m,1,509
14,24,right,male,4,15,好人,H2.bmp,Bad,No,n,n,1,521
14,24,right,male,4,16,好人,P3.bmp,Good,Yes,m,m,1,487
14,24,right,male,4,17,坏人,Trap4.bmp,Normal,No,n,n,1,416
14,24,right,male,4,18,常人,Trap3.bmp,Normal,Yes,m,m,1,475
14,24,right,male,4,19,常人,Trap3.bmp,Normal,Yes,m,m,1,391
14,24,right,male,4,20,坏人,H1.bmp,Bad,Yes,m,m,1,397
14,24,right,male,4,21,坏人,H4.bmp,Bad,Yes,m,m,1,451
14,24,right,male,4,22,常人,P4.bmp,Good,No,n,n,1,359
14,24,right,male,4,23,好人,P1.bmp,Good,Yes,m,n,0,360
14,24,right,male,4,24,常人,H4.bmp,Bad,No,n,n,1,514
14,24,right,male,4,25,好人,H1.bmp,Bad,No,n,m,0,341
14,24,right,male,4,26,坏人,P3.bmp,Good,No,n,n,1,468
14,24,right,male,4,27,好人,Trap2.bmp,Normal,No,n,n,1,602
14,24,right,male,4,28,常人,H3.bmp,Bad,No,n,n,1,667
14,24,right,male,4,29,常人,Trap4.bmp,Normal,Yes,m,m,1,462
14,24,right,male,4,30,坏人,H2.bmp,Bad,Yes,m,m,1,463
14,24,right,male,4,31,坏人,H4.bmp,Bad,Yes,m,m,1,381
14,24,right,male,4,32,坏人,H3.bmp,Bad,Yes,m,m,1,417
14,24,right,male,4,33,常人,H2.bmp,Bad,No,n,n,1,404
14,24,right,male,4,34,坏人,H1.bmp,Bad,Yes,m,m,1,432
14,24,right,male,4,35,好人,P2.bmp,Good,Yes,m,m,1,392
14,24,right,male,4,36,好人,P4.bmp,Good,Yes,m,m,1,532
14,24,right,male,4,37,常人,P1.bmp,Good,No,n,n,1,527
14,24,right,male,4,38,好人,P2.bmp,Good,Yes,m,m,1,363
14,24,right,male,4,39,常人,Trap4.bmp,Normal,Yes,m,m,1,518
14,24,right,male,4,40,常人,P4.bmp,Good,No,n,n,1,615
14,24,right,male,4,41,坏人,P1.bmp,Good,No,n,n,1,552
14,24,right,male,4,42,好人,H4.bmp,Bad,No,n,n,1,761
14,24,right,male,4,43,坏人,H3.bmp,Bad,Yes,m,m,1,660
14,24,right,male,4,44,坏人,P4.bmp,Good,No,n,m,0,346
14,24,right,male,4,45,坏人,H2.bmp,Bad,Yes,m,m,1,430
14,24,right,male,4,46,坏人,P2.bmp,Good,No,n,n,1,465
14,24,right,male,4,47,坏人,H4.bmp,Bad,Yes,m,m,1,517
14,24,right,male,4,48,常人,P3.bmp,Good,No,n,m,0,592
14,24,right,male,4,49,好人,Trap4.bmp,Normal,No,n,n,1,569
14,24,right,male,4,50,常人,H1.bmp,Bad,No,n,n,1,445
14,24,right,male,4,51,好人,H3.bmp,Bad,No,n,n,1,504
14,24,right,male,4,52,好人,P3.bmp,Good,Yes,m,n,0,750
14,24,right,male,4,53,常人,P2.bmp,Good,No,n,n,1,492
14,24,right,male,4,54,好人,P1.bmp,Good,Yes,m,m,1,445
14,24,right,male,4,55,常人,Trap2.bmp,Normal,Yes,m,m,1,577
14,24,right,male,4,56,好人,Trap1.bmp,Normal,No,n,n,1,544
14,24,right,male,4,57,常人,H4.bmp,Bad,No,n,n,1,527
14,24,right,male,4,58,好人,Trap1.bmp,Normal,No,n,n,1,594
14,24,right,male,4,59,常人,Trap1.bmp,Normal,Yes,m,m,1,787
14,24,right,male,4,60,常人,Trap2.bmp,Normal,Yes,m,m,1,449
14,24,right,male,5,1,常人,P3.bmp,Good,No,n,n,1,478
14,24,right,male,5,2,好人,P2.bmp,Good,Yes,m,m,1,540
14,24,right,male,5,3,坏人,H2.bmp,Bad,Yes,m,m,1,407
14,24,right,male,5,4,好人,P1.bmp,Good,Yes,m,m,1,389
14,24,right,male,5,5,好人,Trap3.bmp,Normal,No,n,n,1,494
14,24,right,male,5,6,常人,P4.bmp,Good,No,n,n,1,524
14,24,right,male,5,7,好人,P1.bmp,Good,Yes,m,m,1,467
14,24,right,male,5,8,坏人,H1.bmp,Bad,Yes,m,m,1,526
14,24,right,male,5,9,好人,P1.bmp,Good,Yes,m,m,1,399
14,24,right,male,5,10,常人,Trap4.bmp,Normal,Yes,m,m,1,461
14,24,right,male,5,11,常人,Trap3.bmp,Normal,Yes,m,m,1,411
14,24,right,male,5,12,常人,Trap3.bmp,Normal,Yes,m,m,1,399
14,24,right,male,5,13,坏人,P3.bmp,Good,No,n,n,1,607
14,24,right,male,5,14,坏人,H1.bmp,Bad,Yes,m,n,0,523
14,24,right,male,5,15,好人,Trap1.bmp,Normal,No,n,n,1,633
14,24,right,male,5,16,坏人,H3.bmp,Bad,Yes,m,m,1,444
14,24,right,male,5,17,坏人,H4.bmp,Bad,Yes,m,m,1,445
14,24,right,male,5,18,常人,H4.bmp,Bad,No,n,n,1,689
14,24,right,male,5,19,坏人,Trap2.bmp,Normal,No,n,n,1,639
14,24,right,male,5,20,好人,Trap2.bmp,Normal,No,n,n,1,665
14,24,right,male,5,21,坏人,P2.bmp,Good,No,n,m,0,541
14,24,right,male,5,22,坏人,H2.bmp,Bad,Yes,m,m,1,472
14,24,right,male,5,23,常人,H3.bmp,Bad,No,n,n,1,470
14,24,right,male,5,24,好人,H1.bmp,Bad,No,n,n,1,724
14,24,right,male,5,25,好人,P4.bmp,Good,Yes,m,m,1,805
14,24,right,male,5,26,好人,P3.bmp,Good,Yes,m,m,1,443
14,24,right,male,5,27,好人,P2.bmp,Good,Yes,m,m,1,351
14,24,right,male,5,28,常人,Trap2.bmp,Normal,Yes,m,m,1,589
14,24,right,male,5,29,常人,Trap1.bmp,Normal,Yes,m,m,1,387
14,24,right,male,5,30,常人,Trap1.bmp,Normal,Yes,m,m,1,380
14,24,right,male,5,31,坏人,P3.bmp,Good,No,n,n,1,506
14,24,right,male,5,32,坏人,Trap4.bmp,Normal,No,n,n,1,702
14,24,right,male,5,33,好人,H1.bmp,Bad,No,n,n,1,623
14,24,right,male,5,34,常人,P2.bmp,Good,No,n,n,1,503
14,24,right,male,5,35,常人,H2.bmp,Bad,No,n,n,1,478
14,24,right,male,5,36,常人,H4.bmp,Bad,No,n,n,1,449
14,24,right,male,5,37,常人,P1.bmp,Good,No,n,n,1,421
14,24,right,male,5,38,坏人,P1.bmp,Good,No,n,n,1,509
14,24,right,male,5,39,好人,P3.bmp,Good,Yes,m,m,1,630
14,24,right,male,5,40,好人,H2.bmp,Bad,No,n,n,1,695
14,24,right,male,5,41,坏人,P4.bmp,Good,No,n,m,0,709
14,24,right,male,5,42,常人,P4.bmp,Good,No,n,n,1,606
14,24,right,male,5,43,常人,Trap4.bmp,Normal,Yes,m,m,1,681
14,24,right,male,5,44,常人,Trap2.bmp,Normal,Yes,m,m,1,471
14,24,right,male,5,45,坏人,H4.bmp,Bad,Yes,m,m,1,661
14,24,right,male,5,46,坏人,H4.bmp,Bad,Yes,m,m,1,505
14,24,right,male,5,47,坏人,Trap3.bmp,Normal,No,n,,0,0
14,24,right,male,5,48,好人,Trap1.bmp,Normal,No,n,n,1,496
14,24,right,male,5,49,好人,H4.bmp,Bad,No,n,n,1,574
14,24,right,male,5,50,好人,H3.bmp,Bad,No,n,n,1,890
14,24,right,male,5,51,坏人,H2.bmp,Bad,Yes,m,m,1,578
14,24,right,male,5,52,坏人,Trap1.bmp,Normal,No,n,n,1,440
14,24,right,male,5,53,好人,P4.bmp,Good,Yes,m,m,1,390
14,24,right,male,5,54,坏人,Trap2.bmp,Normal,No,n,n,1,444
14,24,right,male,5,55,好人,Trap4.bmp,Normal,No,n,n,1,543
14,24,right,male,5,56,常人,Trap4.bmp,Normal,Yes,m,m,1,579
14,24,right,male,5,57,常人,H1.bmp,Bad,No,n,n,1,612
14,24,right,male,5,58,常人,Trap3.bmp,Normal,Yes,m,m,1,527
14,24,right,male,5,59,坏人,H3.bmp,Bad,Yes,m,m,1,555
14,24,right,male,5,60,好人,P2.bmp,Good,Yes,m,m,1,726
14,24,right,male,6,1,坏人,Trap3.bmp,Normal,No,n,n,1,434
14,24,right,male,6,2,常人,P4.bmp,Good,No,n,n,1,483
14,24,right,male,6,3,坏人,P2.bmp,Good,No,n,n,1,393
14,24,right,male,6,4,好人,Trap3.bmp,Normal,No,n,n,1,517
14,24,right,male,6,5,好人,H1.bmp,Bad,No,n,n,1,640
14,24,right,male,6,6,常人,Trap1.bmp,Normal,Yes,m,m,1,412
14,24,right,male,6,7,好人,P2.bmp,Good,Yes,m,m,1,404
14,24,right,male,6,8,坏人,Trap1.bmp,Normal,No,n,n,1,400
14,24,right,male,6,9,坏人,P3.bmp,Good,No,n,n,1,588
14,24,right,male,6,10,好人,Trap1.bmp,Normal,No,n,n,1,570
14,24,right,male,6,11,常人,H4.bmp,Bad,No,n,n,1,576
14,24,right,male,6,12,好人,Trap2.bmp,Normal,No,n,n,1,481
14,24,right,male,6,13,坏人,P1.bmp,Good,No,n,n,1,534
14,24,right,male,6,14,坏人,P4.bmp,Good,No,n,n,1,436
14,24,right,male,6,15,常人,Trap4.bmp,Normal,Yes,m,n,0,383
14,24,right,male,6,16,好人,P3.bmp,Good,Yes,m,m,1,587
14,24,right,male,6,17,常人,Trap3.bmp,Normal,Yes,m,m,1,540
14,24,right,male,6,18,好人,P4.bmp,Good,Yes,m,m,1,445
14,24,right,male,6,19,坏人,Trap4.bmp,Normal,No,n,n,1,462
14,24,right,male,6,20,好人,P3.bmp,Good,Yes,m,m,1,513
14,24,right,male,6,21,好人,P1.bmp,Good,Yes,m,m,1,418
14,24,right,male,6,22,常人,H4.bmp,Bad,No,n,n,1,443
14,24,right,male,6,23,常人,Trap4.bmp,Normal,Yes,m,m,1,603
14,24,right,male,6,24,好人,H3.bmp,Bad,No,n,n,1,615
14,24,right,male,6,25,常人,P4.bmp,Good,No,n,n,1,549
14,24,right,male,6,26,坏人,P3.bmp,Good,No,n,n,1,603
14,24,right,male,6,27,坏人,Trap2.bmp,Normal,No,n,n,1,532
14,24,right,male,6,28,好人,P2.bmp,Good,Yes,m,m,1,418
14,24,right,male,6,29,坏人,H1.bmp,Bad,Yes,m,m,1,582
14,24,right,male,6,30,好人,P1.bmp,Good,Yes,m,m,1,484
14,24,right,male,6,31,坏人,H2.bmp,Bad,Yes,m,m,1,458
14,24,right,male,6,32,好人,P4.bmp,Good,Yes,m,m,1,424
14,24,right,male,6,33,好人,Trap4.bmp,Normal,No,n,n,1,545
14,24,right,male,6,34,好人,H1.bmp,Bad,No,n,m,0,431
14,24,right,male,6,35,坏人,H2.bmp,Bad,Yes,m,m,1,520
14,24,right,male,6,36,常人,P2.bmp,Good,No,n,n,1,430
14,24,right,male,6,37,坏人,H3.bmp,Bad,Yes,m,m,1,428
14,24,right,male,6,38,好人,P2.bmp,Good,Yes,m,m,1,493
14,24,right,male,6,39,常人,Trap3.bmp,Normal,Yes,m,m,1,446
14,24,right,male,6,40,好人,H4.bmp,Bad,No,n,n,1,543
14,24,right,male,6,41,坏人,H4.bmp,Bad,Yes,m,m,1,680
14,24,right,male,6,42,坏人,Trap2.bmp,Normal,No,n,n,1,542
14,24,right,male,6,43,常人,Trap1.bmp,Normal,Yes,m,m,1,502
14,24,right,male,6,44,坏人,H3.bmp,Bad,Yes,m,m,1,553
14,24,right,male,6,45,好人,P1.bmp,Good,Yes,m,m,1,464
14,24,right,male,6,46,坏人,H1.bmp,Bad,Yes,m,m,1,440
14,24,right,male,6,47,常人,H1.bmp,Bad,No,n,n,1,476
14,24,right,male,6,48,常人,Trap4.bmp,Normal,Yes,m,m,1,501
14,24,right,male,6,49,常人,Trap3.bmp,Normal,Yes,m,m,1,363
14,24,right,male,6,50,好人,Trap1.bmp,Normal,No,n,n,1,702
14,24,right,male,6,51,好人,H2.bmp,Bad,No,n,n,1,660
14,24,right,male,6,52,常人,H2.bmp,Bad,No,n,n,1,557
14,24,right,male,6,53,常人,P1.bmp,Good,No,n,n,1,419
14,24,right,male,6,54,常人,P3.bmp,Good,No,n,n,1,458
14,24,right,male,6,55,常人,Trap2.bmp,Normal,Yes,m,m,1,533
14,24,right,male,6,56,常人,H3.bmp,Bad,No,n,n,1,521
14,24,right,male,6,57,坏人,H2.bmp,Bad,Yes,m,m,1,465
14,24,right,male,6,58,常人,Trap2.bmp,Normal,Yes,m,m,1,490
14,24,right,male,6,59,坏人,H4.bmp,Bad,Yes,m,m,1,462
14,24,right,male,6,60,坏人,H4.bmp,Bad,Yes,m,m,1,420
15,25,right,male,,1,坏人,H2.bmp,Good,No,m,,0,0
15,25,right,male,,2,常人,P3.bmp,Normal,Yes,n,m,0,900
15,25,right,male,,3,好人,Trap1.bmp,Bad,No,m,m,1,1093
15,25,right,male,,4,坏人,Trap3.bmp,Bad,Yes,n,m,0,771
15,25,right,male,,5,好人,P4.bmp,Normal,No,m,m,1,781
15,25,right,male,,6,常人,Trap4.bmp,Bad,No,m,,0,0
15,25,right,male,,7,好人,H1.bmp,Good,Yes,n,m,0,801
15,25,right,male,,8,常人,P1.bmp,Normal,Yes,n,n,1,784
15,25,right,male,,9,常人,H4.bmp,Good,No,m,n,0,624
15,25,right,male,,10,坏人,Trap2.bmp,Bad,Yes,n,n,1,809
15,25,right,male,,11,好人,H3.bmp,Good,Yes,n,,0,0
15,25,right,male,,12,坏人,P2.bmp,Normal,No,m,m,1,808
15,25,right,male,,13,好人,H1.bmp,Good,Yes,n,n,1,935
15,25,right,male,,14,常人,H4.bmp,Good,No,m,m,1,800
15,25,right,male,,15,常人,Trap4.bmp,Bad,No,m,m,1,835
15,25,right,male,,16,好人,Trap1.bmp,Bad,No,m,m,1,769
15,25,right,male,,17,坏人,Trap3.bmp,Bad,Yes,n,n,1,711
15,25,right,male,,18,好人,H3.bmp,Good,Yes,n,n,1,576
15,25,right,male,,19,坏人,Trap2.bmp,Bad,Yes,n,n,1,540
15,25,right,male,,20,坏人,H2.bmp,Good,No,m,m,1,623
15,25,right,male,,21,坏人,P2.bmp,Normal,No,m,m,1,520
15,25,right,male,,22,常人,P3.bmp,Normal,Yes,n,n,1,524
15,25,right,male,,23,好人,P4.bmp,Normal,No,m,n,0,599
15,25,right,male,,24,常人,P1.bmp,Normal,Yes,n,m,0,912
15,25,right,male,,25,常人,P3.bmp,Normal,Yes,n,m,0,670
15,25,right,male,,26,好人,Trap1.bmp,Bad,No,m,m,1,527
15,25,right,male,,27,常人,P1.bmp,Normal,Yes,n,m,0,725
15,25,right,male,,28,常人,H4.bmp,Good,No,m,n,0,835
15,25,right,male,,29,坏人,Trap3.bmp,Bad,Yes,n,n,1,620
15,25,right,male,,30,坏人,Trap2.bmp,Bad,Yes,n,n,1,513
15,25,right,male,,31,好人,H1.bmp,Good,Yes,n,n,1,602
15,25,right,male,,32,坏人,P2.bmp,Normal,No,m,m,1,819
15,25,right,male,,33,坏人,H2.bmp,Good,No,m,m,1,659
15,25,right,male,,34,好人,H3.bmp,Good,Yes,n,n,1,647
15,25,right,male,,35,常人,Trap4.bmp,Bad,No,m,m,1,722
15,25,right,male,,36,好人,P4.bmp,Normal,No,m,n,0,603
15,25,right,male,1,1,坏人,Trap2.bmp,Bad,Yes,n,n,1,594
15,25,right,male,1,2,常人,H4.bmp,Good,No,m,n,0,539
15,25,right,male,1,3,常人,Trap3.bmp,Bad,No,m,m,1,705
15,25,right,male,1,4,常人,P1.bmp,Normal,Yes,n,m,0,743
15,25,right,male,1,5,好人,H3.bmp,Good,Yes,n,n,1,613
15,25,right,male,1,6,坏人,H4.bmp,Good,No,m,m,1,638
15,25,right,male,1,7,好人,P1.bmp,Normal,No,m,n,0,529
15,25,right,male,1,8,坏人,Trap3.bmp,Bad,Yes,n,n,1,581
15,25,right,male,1,9,常人,P1.bmp,Normal,Yes,n,m,0,712
15,25,right,male,1,10,好人,Trap1.bmp,Bad,No,m,m,1,849
15,25,right,male,1,11,好人,H2.bmp,Good,Yes,n,n,1,650
15,25,right,male,1,12,好人,H3.bmp,Good,Yes,n,n,1,624
15,25,right,male,1,13,好人,H1.bmp,Good,Yes,n,n,1,516
15,25,right,male,1,14,好人,Trap3.bmp,Bad,No,m,m,1,540
15,25,right,male,1,15,好人,Trap1.bmp,Bad,No,m,m,1,640
15,25,right,male,1,16,常人,P2.bmp,Normal,Yes,n,m,0,769
15,25,right,male,1,17,坏人,Trap4.bmp,Bad,Yes,n,n,1,495
15,25,right,male,1,18,好人,H2.bmp,Good,Yes,n,n,1,512
15,25,right,male,1,19,坏人,Trap1.bmp,Bad,Yes,n,n,1,590
15,25,right,male,1,20,坏人,Trap3.bmp,Bad,Yes,n,m,0,561
15,25,right,male,1,21,坏人,H3.bmp,Good,No,m,m,1,684
15,25,right,male,1,22,好人,H1.bmp,Good,Yes,n,n,1,586
15,25,right,male,1,23,好人,H2.bmp,Good,Yes,n,n,1,517
15,25,right,male,1,24,好人,Trap2.bmp,Bad,No,m,m,1,502
15,25,right,male,1,25,好人,P3.bmp,Normal,No,m,n,0,476
15,25,right,male,1,26,好人,H4.bmp,Good,Yes,n,n,1,645
15,25,right,male,1,27,坏人,Trap4.bmp,Bad,Yes,n,n,1,881
15,25,right,male,1,28,坏人,P2.bmp,Normal,No,m,m,1,543
15,25,right,male,1,29,常人,H1.bmp,Good,No,m,n,0,576
15,25,right,male,1,30,常人,P3.bmp,Normal,Yes,n,n,1,915
15,25,right,male,1,31,坏人,P3.bmp,Normal,No,m,m,1,686
15,25,right,male,1,32,好人,H1.bmp,Good,Yes,n,n,1,599
15,25,right,male,1,33,坏人,H1.bmp,Good,No,m,m,1,565
15,25,right,male,1,34,坏人,P2.bmp,Normal,No,m,m,1,513
15,25,right,male,1,35,好人,P1.bmp,Normal,No,m,n,0,615
15,25,right,male,1,36,好人,P2.bmp,Normal,No,m,n,0,907
15,25,right,male,1,37,常人,Trap2.bmp,Bad,No,m,m,1,716
15,25,right,male,1,38,常人,H2.bmp,Good,No,m,n,0,724
15,25,right,male,1,39,常人,Trap4.bmp,Bad,No,m,m,1,648
15,25,right,male,1,40,常人,H3.bmp,Good,No,m,m,1,793
