Subject,Age,Handedness,Sex,BlockList.Sample,SubTrial,Label,Target,Shape,morality,self,YesNoResp,Target.RESP,Target.CRESP,Target.ACC,Target.RT
10,19,right,male,,1,好我,D.bmp,Goodself,moral,self,Yes,,k,0,0
10,19,right,male,,2,凡人,S.bmp,Badother,normal,other,No,m,m,1,832
10,19,right,male,,3,坏我,Tra.bmp,Badself,immoral,self,Yes,k,k,1,649
10,19,right,male,,4,好我,P.bmp,Normalself,moral,self,No,m,m,1,676
10,19,right,male,,5,好我,T.bmp,Goodother,moral,self,No,k,m,0,384
10,19,right,male,,6,凡人,C.bmp,Normalother,normal,other,Yes,k,k,1,619
10,19,right,male,,7,好人,C.bmp,Normalother,moral,other,No,m,m,1,919
10,19,right,male,,8,好人,T.bmp,Goodother,moral,other,Yes,k,k,1,488
10,19,right,male,,9,好人,D.bmp,Goodself,moral,other,No,m,m,1,720
10,19,right,male,,10,凡我,S.bmp,Badother,normal,self,No,m,m,1,852
10,19,right,male,,11,好我,C.bmp,Normalother,moral,self,No,m,m,1,583
10,19,right,male,,12,好人,Tra.bmp,Badself,moral,other,No,m,m,1,872
10,19,right,male,,13,坏我,T.bmp,Goodother,immoral,self,No,m,m,1,796
10,19,right,male,,14,凡我,P.bmp,Normalself,normal,self,Yes,k,k,1,1087
10,19,right,male,,15,凡我,Tra.bmp,Badself,normal,self,No,m,m,1,656
10,19,right,male,,16,坏人,Tra.bmp,Badself,immoral,other,No,k,m,0,848
10,19,right,male,,17,好我,D.bmp,Goodself,moral,self,Yes,m,k,0,673
10,19,right,male,,18,坏我,S.bmp,Badother,immoral,self,No,k,m,0,823
10,19,right,male,,19,坏人,S.bmp,Badother,immoral,other,Yes,k,k,1,560
10,19,right,male,,20,坏我,Tra.bmp,Badself,immoral,self,Yes,k,k,1,1003
10,19,right,male,,21,坏人,T.bmp,Goodother,immoral,other,No,m,m,1,871
10,19,right,male,,22,凡人,P.bmp,Normalself,normal,other,No,m,m,1,807
10,19,right,male,,23,坏我,D.bmp,Goodself,immoral,self,No,k,m,0,1006
10,19,right,male,,24,凡人,Tra.bmp,Badself,normal,other,No,,m,0,0
10,19,right,male,,25,坏人,S.bmp,Badother,immoral,other,Yes,k,k,1,1090
10,19,right,male,,26,好我,S.bmp,Badother,moral,self,No,m,m,1,672
10,19,right,male,,27,好我,Tra.bmp,Badself,moral,self,No,m,m,1,1035
10,19,right,male,,28,好我,D.bmp,Goodself,moral,self,Yes,k,k,1,753
10,19,right,male,,29,凡我,P.bmp,Normalself,normal,self,Yes,k,k,1,592
10,19,right,male,,30,凡我,C.bmp,Normalother,normal,self,No,m,m,1,1016
10,19,right,male,,31,坏人,S.bmp,Badother,immoral,other,Yes,k,k,1,982
10,19,right,male,,32,坏我,P.bmp,Normalself,immoral,self,No,m,m,1,701
10,19,right,male,,33,凡人,D.bmp,Goodself,normal,other,No,k,m,0,976
10,19,right,male,,34,凡我,P.bmp,Normalself,normal,self,Yes,m,k,0,681
10,19,right,male,,35,好人,T.bmp,Goodother,moral,other,Yes,k,k,1,660
10,19,right,male,,36,好人,T.bmp,Goodother,moral,other,Yes,m,k,0,616
10,19,right,male,,37,凡我,P.bmp,Normalself,normal,self,Yes,k,k,1,883
10,19,right,male,,38,好人,T.bmp,Goodother,moral,other,Yes,k,k,1,620
10,19,right,male,,39,坏我,Tra.bmp,Badself,immoral,self,Yes,k,k,1,810
10,19,right,male,,40,坏我,Tra.bmp,Badself,immoral,self,Yes,m,k,0,734
10,19,right,male,,41,好人,T.bmp,Goodother,moral,other,Yes,k,k,1,697
10,19,right,male,,42,坏人,S.bmp,Badother,immoral,other,Yes,k,k,1,783
10,19,right,male,,43,坏人,C.bmp,Normalother,immoral,other,No,m,m,1,1030
10,19,right,male,,44,凡人,C.bmp,Normalother,normal,other,Yes,k,k,1,486
10,19,right,male,,45,好我,D.bmp,Goodself,moral,self,Yes,,k,0,0
10,19,right,male,,46,坏人,S.bmp,Badother,immoral,other,Yes,k,k,1,789
10,19,right,male,,47,坏我,Tra.bmp,Badself,immoral,self,Yes,m,k,0,640
10,19,right,male,,48,凡人,T.bmp,Goodother,normal,other,No,m,m,1,798
10,19,right,male,,49,凡我,P.bmp,Normalself,normal,self,Yes,m,k,0,879
10,19,right,male,,50,坏人,D.bmp,Goodself,immoral,other,No,k,m,0,832
10,19,right,male,,51,好人,S.bmp,Badother,moral,other,No,m,m,1,742
10,19,right,male,,52,坏我,C.bmp,Normalother,immoral,self,No,,m,0,0
10,19,right,male,,53,凡人,C.bmp,Normalother,normal,other,Yes,k,k,1,594
10,19,right,male,,54,凡人,C.bmp,Normalother,normal,other,Yes,k,k,1,510
10,19,right,male,,55,凡我,T.bmp,Goodother,normal,self,No,m,m,1,662
10,19,right,male,,56,好人,P.bmp,Normalself,moral,other,No,m,m,1,770
10,19,right,male,,57,凡我,D.bmp,Goodself,normal,self,No,m,m,1,901
10,19,right,male,,58,好我,D.bmp,Goodself,moral,self,Yes,k,k,1,881
10,19,right,male,,59,坏人,P.bmp,Normalself,immoral,other,No,,m,0,0
10,19,right,male,,60,凡人,C.bmp,Normalother,normal,other,Yes,k,k,1,653
10,19,right,male,1,1,凡人,C.bmp,Normalother,,,Yes,k,k,1,822
10,19,right,male,1,2,坏人,S.bmp,Badother,,,Yes,m,k,0,660
10,19,right,male,1,3,坏人,S.bmp,Badother,,,Yes,m,k,0,608
10,19,right,male,1,4,凡我,P.bmp,Normalself,,,Yes,k,k,1,747
10,19,right,male,1,5,坏我,P.bmp,Normalself,,,No,m,m,1,657
10,19,right,male,1,6,凡我,S.bmp,Badother,,,No,m,m,1,631
10,19,right,male,1,7,凡我,D.bmp,Goodself,,,No,m,m,1,678
10,19,right,male,1,8,好我,T.bmp,Goodother,,,No,k,m,0,561
10,19,right,male,1,9,坏我,D.bmp,Goodself,,,No,m,m,1,903
10,19,right,male,1,10,好人,T.bmp,Goodother,,,Yes,k,k,1,507
10,19,right,male,1,11,坏我,Tra.bmp,Badself,,,Yes,k,k,1,750
10,19,right,male,1,12,凡我,P.bmp,Normalself,,,Yes,k,k,1,700
10,19,right,male,1,13,好人,T.bmp,Goodother,,,Yes,k,k,1,664
10,19,right,male,1,14,好我,D.bmp,Goodself,,,Yes,m,k,0,648
10,19,right,male,1,15,好我,D.bmp,Goodself,,,Yes,k,k,1,553
10,19,right,male,1,16,坏人,T.bmp,Goodother,,,No,k,m,0,701
10,19,right,male,1,17,凡人,C.bmp,Normalother,,,Yes,k,k,1,759
10,19,right,male,1,18,坏人,P.bmp,Normalself,,,No,m,m,1,680
10,19,right,male,1,19,凡我,P.bmp,Normalself,,,Yes,k,k,1,577
10,19,right,male,1,20,好人,T.bmp,Goodother,,,Yes,k,k,1,505
10,19,right,male,1,21,凡人,C.bmp,Normalother,,,Yes,k,k,1,741
10,19,right,male,1,22,好人,T.bmp,Goodother,,,Yes,k,k,1,851
10,19,right,male,1,23,坏人,S.bmp,Badother,,,Yes,k,k,1,865
10,19,right,male,1,24,凡人,P.bmp,Normalself,,,No,m,m,1,991
10,19,right,male,1,25,坏人,S.bmp,Badother,,,Yes,k,k,1,1067
10,19,right,male,1,26,坏我,T.bmp,Goodother,,,No,m,m,1,580
10,19,right,male,1,27,好人,D.bmp,Goodself,,,No,k,m,0,794
10,19,right,male,1,28,好人,T.bmp,Goodother,,,Yes,k,k,1,525
10,19,right,male,1,29,好人,S.bmp,Badother,,,No,m,m,1,993
10,19,right,male,1,30,好我,D.bmp,Goodself,,,Yes,k,k,1,676
10,19,right,male,1,31,凡人,Tra.bmp,Badself,,,No,m,m,1,621
10,19,right,male,1,32,好人,Tra.bmp,Badself,,,No,m,m,1,742
10,19,right,male,1,33,好我,S.bmp,Badother,,,No,m,m,1,815
10,19,right,male,1,34,好我,P.bmp,Normalself,,,No,m,m,1,669
10,19,right,male,1,35,好我,D.bmp,Goodself,,,Yes,k,k,1,656
10,19,right,male,1,36,凡我,C.bmp,Normalother,,,No,m,m,1,663
10,19,right,male,1,37,凡我,T.bmp,Goodother,,,No,m,m,1,655
10,19,right,male,1,38,坏我,Tra.bmp,Badself,,,Yes,k,k,1,680
10,19,right,male,1,39,凡人,T.bmp,Goodother,,,No,m,m,1,764
10,19,right,male,1,40,坏人,C.bmp,Normalother,,,No,m,m,1,738
10,19,right,male,1,41,好人,P.bmp,Normalself,,,No,m,m,1,829
10,19,right,male,1,42,坏我,Tra.bmp,Badself,,,Yes,k,k,1,761
10,19,right,male,1,43,凡人,D.bmp,Goodself,,,No,m,m,1,746
10,19,right,male,1,44,凡人,S.bmp,Badother,,,No,m,m,1,898
10,19,right,male,1,45,坏人,S.bmp,Badother,,,Yes,k,k,1,1099
10,19,right,male,1,46,好我,D.bmp,Goodself,,,Yes,k,k,1,900
10,19,right,male,1,47,凡人,C.bmp,Normalother,,,Yes,k,k,1,645
10,19,right,male,1,48,好我,C.bmp,Normalother,,,No,m,m,1,614
10,19,right,male,1,49,好人,C.bmp,Normalother,,,No,m,m,1,958
10,19,right,male,1,50,凡我,P.bmp,Normalself,,,Yes,m,k,0,934
10,19,right,male,1,51,凡我,P.bmp,Normalself,,,Yes,k,k,1,546
10,19,right,male,1,52,凡人,C.bmp,Normalother,,,Yes,k,k,1,693
10,19,right,male,1,53,好我,Tra.bmp,Badself,,,No,m,m,1,713
10,19,right,male,1,54,凡我,Tra.bmp,Badself,,,No,k,m,0,658
10,19,right,male,1,55,坏我,Tra.bmp,Badself,,,Yes,k,k,1,586
10,19,right,male,1,56,坏人,Tra.bmp,Badself,,,No,m,m,1,675
10,19,right,male,1,57,坏人,D.bmp,Goodself,,,No,k,m,0,1084
10,19,right,male,1,58,坏我,Tra.bmp,Badself,,,Yes,k,k,1,855
10,19,right,male,1,59,坏我,S.bmp,Badother,,,No,m,m,1,923
10,19,right,male,1,60,坏我,C.bmp,Normalother,,,No,m,m,1,649
10,19,right,male,1,61,坏我,S.bmp,Badother,,,No,m,m,1,741
10,19,right,male,1,62,凡我,Tra.bmp,Badself,,,No,k,m,0,547
10,19,right,male,1,63,好人,T.bmp,Goodother,,,Yes,k,k,1,604
10,19,right,male,1,64,好我,D.bmp,Goodself,,,Yes,k,k,1,892
10,19,right,male,1,65,坏人,S.bmp,Badother,,,Yes,k,k,1,909
10,19,right,male,1,66,坏我,P.bmp,Normalself,,,No,m,m,1,710
10,19,right,male,1,67,坏人,C.bmp,Normalother,,,No,m,m,1,762
10,19,right,male,1,68,好人,Tra.bmp,Badself,,,No,m,m,1,661
10,19,right,male,1,69,凡人,P.bmp,Normalself,,,No,k,m,0,694
10,19,right,male,1,70,坏我,Tra.bmp,Badself,,,Yes,,k,0,0
10,19,right,male,1,71,凡我,D.bmp,Goodself,,,No,m,m,1,1050
10,19,right,male,1,72,好人,T.bmp,Goodother,,,Yes,k,k,1,744
10,19,right,male,1,73,好我,P.bmp,Normalself,,,No,m,m,1,657
10,19,right,male,1,74,好人,P.bmp,Normalself,,,No,m,m,1,815
10,19,right,male,1,75,坏人,S.bmp,Badother,,,Yes,k,k,1,653
10,19,right,male,1,76,好我,D.bmp,Goodself,,,Yes,k,k,1,606
10,19,right,male,1,77,好我,T.bmp,Goodother,,,No,m,m,1,711
10,19,right,male,1,78,坏人,S.bmp,Badother,,,Yes,k,k,1,693
10,19,right,male,1,79,好人,D.bmp,Goodself,,,No,m,m,1,739
10,19,right,male,1,80,坏我,Tra.bmp,Badself,,,Yes,k,k,1,724
10,19,right,male,1,81,凡人,D.bmp,Goodself,,,No,m,m,1,633
10,19,right,male,1,82,坏人,T.bmp,Goodother,,,No,m,m,1,748
10,19,right,male,1,83,凡我,P.bmp,Normalself,,,Yes,m,k,0,802
10,19,right,male,1,84,凡我,P.bmp,Normalself,,,Yes,k,k,1,457
10,19,right,male,1,85,好我,D.bmp,Goodself,,,Yes,m,k,0,721
10,19,right,male,1,86,凡人,S.bmp,Badother,,,No,m,m,1,767
10,19,right,male,1,87,坏我,C.bmp,Normalother,,,No,m,m,1,619
10,19,right,male,1,88,凡我,P.bmp,Normalself,,,Yes,m,k,0,654
10,19,right,male,1,89,好人,T.bmp,Goodother,,,Yes,k,k,1,668
10,19,right,male,1,90,坏人,D.bmp,Goodself,,,No,m,m,1,749
10,19,right,male,1,91,坏人,S.bmp,Badother,,,Yes,k,k,1,411
10,19,right,male,1,92,好我,Tra.bmp,Badself,,,No,m,m,1,732
10,19,right,male,1,93,好人,S.bmp,Badother,,,No,,m,0,0
10,19,right,male,1,94,凡我,C.bmp,Normalother,,,No,m,m,1,883
10,19,right,male,1,95,凡人,C.bmp,Normalother,,,Yes,k,k,1,673
10,19,right,male,1,96,凡我,P.bmp,Normalself,,,Yes,k,k,1,895
10,19,right,male,1,97,好我,D.bmp,Goodself,,,Yes,m,k,0,800
10,19,right,male,1,98,坏人,S.bmp,Badother,,,Yes,k,k,1,929
10,19,right,male,1,99,凡我,T.bmp,Goodother,,,No,m,m,1,996
10,19,right,male,1,100,好人,C.bmp,Normalother,,,No,m,m,1,635
10,19,right,male,1,101,好人,T.bmp,Goodother,,,Yes,k,k,1,587
10,19,right,male,1,102,坏人,P.bmp,Normalself,,,No,m,m,1,815
10,19,right,male,1,103,好我,C.bmp,Normalother,,,No,m,m,1,698
10,19,right,male,1,104,凡我,S.bmp,Badother,,,No,m,m,1,883
10,19,right,male,1,105,凡我,P.bmp,Normalself,,,Yes,k,k,1,817
10,19,right,male,1,106,凡人,C.bmp,Normalother,,,Yes,k,k,1,575
10,19,right,male,1,107,好我,D.bmp,Goodself,,,Yes,k,k,1,707
10,19,right,male,1,108,好人,T.bmp,Goodother,,,Yes,k,k,1,718
10,19,right,male,1,109,凡人,C.bmp,Normalother,,,Yes,k,k,1,801
10,19,right,male,1,110,坏我,Tra.bmp,Badself,,,Yes,k,k,1,850
10,19,right,male,1,111,坏我,Tra.bmp,Badself,,,Yes,k,k,1,934
10,19,right,male,1,112,坏我,T.bmp,Goodother,,,No,m,m,1,638
10,19,right,male,1,113,凡人,Tra.bmp,Badself,,,No,m,m,1,903
10,19,right,male,1,114,凡人,C.bmp,Normalother,,,Yes,k,k,1,519
10,19,right,male,1,115,好我,S.bmp,Badother,,,No,m,m,1,733
10,19,right,male,1,116,凡人,C.bmp,Normalother,,,Yes,k,k,1,686
10,19,right,male,1,117,凡人,T.bmp,Goodother,,,No,m,m,1,713
10,19,right,male,1,118,坏人,Tra.bmp,Badself,,,No,m,m,1,757
10,19,right,male,1,119,坏我,D.bmp,Goodself,,,No,m,m,1,848
10,19,right,male,1,120,坏我,Tra.bmp,Badself,,,Yes,k,k,1,913
10,19,right,male,2,1,坏我,Tra.bmp,Badself,,,Yes,k,k,1,917
10,19,right,male,2,2,凡人,C.bmp,Normalother,,,Yes,k,k,1,595
10,19,right,male,2,3,好我,C.bmp,Normalother,,,No,m,m,1,655
10,19,right,male,2,4,凡人,P.bmp,Normalself,,,No,m,m,1,805
10,19,right,male,2,5,好人,T.bmp,Goodother,,,Yes,k,k,1,678
10,19,right,male,2,6,凡我,P.bmp,Normalself,,,Yes,k,k,1,918
10,19,right,male,2,7,好人,S.bmp,Badother,,,No,,m,0,0
10,19,right,male,2,8,凡我,D.bmp,Goodself,,,No,m,m,1,941
10,19,right,male,2,9,坏我,T.bmp,Goodother,,,No,m,m,1,897
10,19,right,male,2,10,好人,P.bmp,Normalself,,,No,m,m,1,735
10,19,right,male,2,11,凡我,P.bmp,Normalself,,,Yes,k,k,1,805
10,19,right,male,2,12,坏我,Tra.bmp,Badself,,,Yes,k,k,1,931
10,19,right,male,2,13,坏人,P.bmp,Normalself,,,No,m,m,1,820
10,19,right,male,2,14,凡我,P.bmp,Normalself,,,Yes,k,k,1,762
10,19,right,male,2,15,坏人,S.bmp,Badother,,,Yes,k,k,1,613
10,19,right,male,2,16,好人,C.bmp,Normalother,,,No,m,m,1,830
10,19,right,male,2,17,坏我,D.bmp,Goodself,,,No,m,m,1,842
10,19,right,male,2,18,凡人,S.bmp,Badother,,,No,,m,0,0
10,19,right,male,2,19,凡我,C.bmp,Normalother,,,No,m,m,1,465
10,19,right,male,2,20,好人,T.bmp,Goodother,,,Yes,m,k,0,818
10,19,right,male,2,21,凡人,T.bmp,Goodother,,,No,k,m,0,554
10,19,right,male,2,22,好人,Tra.bmp,Badself,,,No,,m,0,0
10,19,right,male,2,23,坏人,S.bmp,Badother,,,Yes,,k,0,0
10,19,right,male,2,24,好我,S.bmp,Badother,,,No,,m,0,0
10,19,right,male,2,25,坏人,S.bmp,Badother,,,Yes,k,k,1,575
10,19,right,male,2,26,坏人,C.bmp,Normalother,,,No,m,m,1,704
10,19,right,male,2,27,凡人,C.bmp,Normalother,,,Yes,k,k,1,694
10,19,right,male,2,28,好我,D.bmp,Goodself,,,Yes,,k,0,0
10,19,right,male,2,29,坏人,S.bmp,Badother,,,Yes,,k,0,0
10,19,right,male,2,30,好我,D.bmp,Goodself,,,Yes,m,k,0,705
10,19,right,male,2,31,好人,T.bmp,Goodother,,,Yes,k,k,1,756
10,19,right,male,2,32,凡人,C.bmp,Normalother,,,Yes,k,k,1,650
10,19,right,male,2,33,坏人,S.bmp,Badother,,,Yes,k,k,1,886
10,19,right,male,2,34,凡人,C.bmp,Normalother,,,Yes,m,k,0,722
10,19,right,male,2,35,坏我,Tra.bmp,Badself,,,Yes,m,k,0,626
10,19,right,male,2,36,好人,D.bmp,Goodself,,,No,k,m,0,726
10,19,right,male,2,37,坏人,Tra.bmp,Badself,,,No,k,m,0,865
10,19,right,male,2,38,凡人,D.bmp,Goodself,,,No,m,m,1,757
10,19,right,male,2,39,好我,D.bmp,Goodself,,,Yes,k,k,1,739
10,19,right,male,2,40,凡我,S.bmp,Badother,,,No,m,m,1,806
10,19,right,male,2,41,好我,D.bmp,Goodself,,,Yes,k,k,1,615
10,19,right,male,2,42,好我,Tra.bmp,Badself,,,No,m,m,1,698
10,19,right,male,2,43,凡人,Tra.bmp,Badself,,,No,m,m,1,784
10,19,right,male,2,44,好人,T.bmp,Goodother,,,Yes,k,k,1,564
10,19,right,male,2,45,坏我,S.bmp,Badother,,,No,k,m,0,917
10,19,right,male,2,46,坏我,Tra.bmp,Badself,,,Yes,k,k,1,552
10,19,right,male,2,47,凡我,P.bmp,Normalself,,,Yes,k,k,1,745
10,19,right,male,2,48,坏我,Tra.bmp,Badself,,,Yes,k,k,1,799
10,19,right,male,2,49,坏我,C.bmp,Normalother,,,No,m,m,1,576
10,19,right,male,2,50,坏我,P.bmp,Normalself,,,No,m,m,1,651
10,19,right,male,2,51,凡我,Tra.bmp,Badself,,,No,k,m,0,537
10,19,right,male,2,52,坏人,D.bmp,Goodself,,,No,m,m,1,669
10,19,right,male,2,53,凡人,C.bmp,Normalother,,,Yes,k,k,1,694
10,19,right,male,2,54,好人,T.bmp,Goodother,,,Yes,k,k,1,646
10,19,right,male,2,55,凡我,T.bmp,Goodother,,,No,m,m,1,636
10,19,right,male,2,56,好我,D.bmp,Goodself,,,Yes,k,k,1,629
10,19,right,male,2,57,凡我,P.bmp,Normalself,,,Yes,m,k,0,819
10,19,right,male,2,58,坏人,T.bmp,Goodother,,,No,m,m,1,774
10,19,right,male,2,59,好我,T.bmp,Goodother,,,No,m,m,1,722
10,19,right,male,2,60,好我,P.bmp,Normalself,,,No,m,m,1,896
10,19,right,male,2,61,凡人,Tra.bmp,Badself,,,No,m,m,1,649
10,19,right,male,2,62,好我,D.bmp,Goodself,,,Yes,k,k,1,623
10,19,right,male,2,63,凡人,P.bmp,Normalself,,,No,m,m,1,805
10,19,right,male,2,64,好我,S.bmp,Badother,,,No,m,m,1,696
10,19,right,male,2,65,坏我,P.bmp,Normalself,,,No,m,m,1,622
10,19,right,male,2,66,坏我,Tra.bmp,Badself,,,Yes,k,k,1,655
10,19,right,male,2,67,凡我,Tra.bmp,Badself,,,No,m,m,1,651
10,19,right,male,2,68,凡人,C.bmp,Normalother,,,Yes,m,k,0,702
10,19,right,male,2,69,好人,T.bmp,Goodother,,,Yes,k,k,1,644
10,19,right,male,2,70,好人,T.bmp,Goodother,,,Yes,k,k,1,496
10,19,right,male,2,71,坏人,S.bmp,Badother,,,Yes,k,k,1,712
10,19,right,male,2,72,坏我,Tra.bmp,Badself,,,Yes,k,k,1,775
10,19,right,male,2,73,凡我,D.bmp,Goodself,,,No,m,m,1,821
10,19,right,male,2,74,凡人,S.bmp,Badother,,,No,m,m,1,968
10,19,right,male,2,75,坏人,P.bmp,Normalself,,,No,m,m,1,860
10,19,right,male,2,76,好我,P.bmp,Normalself,,,No,m,m,1,655
10,19,right,male,2,77,好我,Tra.bmp,Badself,,,No,m,m,1,715
10,19,right,male,2,78,坏人,Tra.bmp,Badself,,,No,m,m,1,729
10,19,right,male,2,79,坏人,S.bmp,Badother,,,Yes,k,k,1,631
10,19,right,male,2,80,坏人,D.bmp,Goodself,,,No,m,m,1,701
10,19,right,male,2,81,坏我,Tra.bmp,Badself,,,Yes,k,k,1,782
10,19,right,male,2,82,凡我,P.bmp,Normalself,,,Yes,k,k,1,841
10,19,right,male,2,83,好人,P.bmp,Normalself,,,No,m,m,1,653
10,19,right,male,2,84,凡我,P.bmp,Normalself,,,Yes,m,k,0,632
10,19,right,male,2,85,坏人,C.bmp,Normalother,,,No,m,m,1,745
10,19,right,male,2,86,好我,T.bmp,Goodother,,,No,m,m,1,735
10,19,right,male,2,87,坏人,S.bmp,Badother,,,Yes,k,k,1,683
10,19,right,male,2,88,好我,D.bmp,Goodself,,,Yes,m,k,0,725
10,19,right,male,2,89,凡人,C.bmp,Normalother,,,Yes,k,k,1,688
10,19,right,male,2,90,好人,S.bmp,Badother,,,No,m,m,1,836
10,19,right,male,2,91,凡我,C.bmp,Normalother,,,No,m,m,1,749
10,19,right,male,2,92,坏我,C.bmp,Normalother,,,No,m,m,1,771
10,19,right,male,2,93,凡人,T.bmp,Goodother,,,No,m,m,1,638
10,19,right,male,2,94,好我,C.bmp,Normalother,,,No,m,m,1,783
10,19,right,male,2,95,好人,T.bmp,Goodother,,,Yes,k,k,1,755
10,19,right,male,2,96,坏我,Tra.bmp,Badself,,,Yes,k,k,1,774
10,19,right,male,2,97,好我,D.bmp,Goodself,,,Yes,k,k,1,818
10,19,right,male,2,98,好人,T.bmp,Goodother,,,Yes,k,k,1,698
10,19,right,male,2,99,凡人,C.bmp,Normalother,,,Yes,k,k,1,662
10,19,right,male,2,100,凡我,P.bmp,Normalself,,,Yes,m,k,0,833
10,19,right,male,2,101,凡我,P.bmp,Normalself,,,Yes,k,k,1,471
10,19,right,male,2,102,坏我,Tra.bmp,Badself,,,Yes,k,k,1,853
10,19,right,male,2,103,坏我,S.bmp,Badother,,,No,m,m,1,750
10,19,right,male,2,104,坏人,T.bmp,Goodother,,,No,m,m,1,692
10,19,right,male,2,105,凡人,D.bmp,Goodself,,,No,m,m,1,720
10,19,right,male,2,106,凡人,C.bmp,Normalother,,,Yes,k,k,1,542
10,19,right,male,2,107,坏人,S.bmp,Badother,,,Yes,k,k,1,1076
10,19,right,male,2,108,坏我,T.bmp,Goodother,,,No,m,m,1,610
10,19,right,male,2,109,好人,Tra.bmp,Badself,,,No,m,m,1,787
10,19,right,male,2,110,凡我,P.bmp,Normalself,,,Yes,k,k,1,734
10,19,right,male,2,111,凡我,T.bmp,Goodother,,,No,m,m,1,629
10,19,right,male,2,112,好人,C.bmp,Normalother,,,No,,m,0,0
10,19,right,male,2,113,好我,D.bmp,Goodself,,,Yes,k,k,1,702
10,19,right,male,2,114,坏人,S.bmp,Badother,,,Yes,k,k,1,692
10,19,right,male,2,115,坏我,D.bmp,Goodself,,,No,m,m,1,939
10,19,right,male,2,116,凡人,C.bmp,Normalother,,,Yes,k,k,1,630
10,19,right,male,2,117,好我,D.bmp,Goodself,,,Yes,k,k,1,775
10,19,right,male,2,118,凡我,S.bmp,Badother,,,No,m,m,1,866
10,19,right,male,2,119,好人,T.bmp,Goodother,,,Yes,k,k,1,774
10,19,right,male,2,120,好人,D.bmp,Goodself,,,No,m,m,1,1091
10,19,right,male,3,1,坏人,S.bmp,Badother,,,Yes,,k,0,0
10,19,right,male,3,2,坏我,Tra.bmp,Badself,,,Yes,k,k,1,722
10,19,right,male,3,3,好我,Tra.bmp,Badself,,,No,m,m,1,560
10,19,right,male,3,4,凡人,D.bmp,Goodself,,,No,m,m,1,745
10,19,right,male,3,5,凡人,C.bmp,Normalother,,,Yes,k,k,1,567
10,19,right,male,3,6,好我,D.bmp,Goodself,,,Yes,k,k,1,530
10,19,right,male,3,7,坏人,D.bmp,Goodself,,,No,m,m,1,555
10,19,right,male,3,8,凡我,P.bmp,Normalself,,,Yes,m,k,0,673
10,19,right,male,3,9,好我,D.bmp,Goodself,,,Yes,k,k,1,597
10,19,right,male,3,10,好我,D.bmp,Goodself,,,Yes,m,k,0,651
10,19,right,male,3,11,好人,P.bmp,Normalself,,,No,m,m,1,956
10,19,right,male,3,12,凡人,C.bmp,Normalother,,,Yes,k,k,1,551
10,19,right,male,3,13,坏我,Tra.bmp,Badself,,,Yes,k,k,1,645
10,19,right,male,3,14,凡人,C.bmp,Normalother,,,Yes,k,k,1,667
10,19,right,male,3,15,好人,S.bmp,Badother,,,No,m,m,1,706
10,19,right,male,3,16,好人,T.bmp,Goodother,,,Yes,k,k,1,512
10,19,right,male,3,17,坏我,T.bmp,Goodother,,,No,m,m,1,654
10,19,right,male,3,18,坏人,S.bmp,Badother,,,Yes,k,k,1,817
10,19,right,male,3,19,凡我,Tra.bmp,Badself,,,No,m,m,1,762
10,19,right,male,3,20,坏我,D.bmp,Goodself,,,No,m,m,1,816
10,19,right,male,3,21,好我,D.bmp,Goodself,,,Yes,k,k,1,564
10,19,right,male,3,22,好我,P.bmp,Normalself,,,No,m,m,1,711
10,19,right,male,3,23,坏人,S.bmp,Badother,,,Yes,k,k,1,648
10,19,right,male,3,24,好人,T.bmp,Goodother,,,Yes,m,k,0,625
10,19,right,male,3,25,好人,D.bmp,Goodself,,,No,m,m,1,646
10,19,right,male,3,26,坏我,C.bmp,Normalother,,,No,m,m,1,1031
10,19,right,male,3,27,凡人,C.bmp,Normalother,,,Yes,m,k,0,658
10,19,right,male,3,28,好我,D.bmp,Goodself,,,Yes,k,k,1,771
10,19,right,male,3,29,凡我,D.bmp,Goodself,,,No,m,m,1,625
10,19,right,male,3,30,凡人,P.bmp,Normalself,,,No,k,m,0,698
10,19,right,male,3,31,坏我,S.bmp,Badother,,,No,m,m,1,752
10,19,right,male,3,32,好我,C.bmp,Normalother,,,No,m,m,1,708
10,19,right,male,3,33,坏人,C.bmp,Normalother,,,No,m,m,1,682
10,19,right,male,3,34,坏人,S.bmp,Badother,,,Yes,k,k,1,1024
10,19,right,male,3,35,凡我,C.bmp,Normalother,,,No,m,m,1,889
10,19,right,male,3,36,凡人,C.bmp,Normalother,,,Yes,k,k,1,567
10,19,right,male,3,37,好人,T.bmp,Goodother,,,Yes,k,k,1,936
10,19,right,male,3,38,凡我,S.bmp,Badother,,,No,m,m,1,641
10,19,right,male,3,39,好人,T.bmp,Goodother,,,Yes,k,k,1,593
10,19,right,male,3,40,好人,Tra.bmp,Badself,,,No,m,m,1,834
10,19,right,male,3,41,坏我,Tra.bmp,Badself,,,Yes,k,k,1,728
10,19,right,male,3,42,凡人,Tra.bmp,Badself,,,No,m,m,1,657
10,19,right,male,3,43,凡我,P.bmp,Normalself,,,Yes,k,k,1,698
10,19,right,male,3,44,好我,T.bmp,Goodother,,,No,k,m,0,531
10,19,right,male,3,45,坏人,P.bmp,Normalself,,,No,m,m,1,633
10,19,right,male,3,46,凡我,P.bmp,Normalself,,,Yes,,k,0,0
10,19,right,male,3,47,坏人,Tra.bmp,Badself,,,No,m,m,1,888
10,19,right,male,3,48,好我,S.bmp,Badother,,,No,k,m,0,744
10,19,right,male,3,49,凡人,S.bmp,Badother,,,No,m,m,1,660
10,19,right,male,3,50,凡人,T.bmp,Goodother,,,No,m,m,1,776
10,19,right,male,3,51,坏我,P.bmp,Normalself,,,No,m,m,1,1056
10,19,right,male,3,52,好人,T.bmp,Goodother,,,Yes,k,k,1,561
10,19,right,male,3,53,凡我,P.bmp,Normalself,,,Yes,k,k,1,989
10,19,right,male,3,54,坏人,S.bmp,Badother,,,Yes,m,k,0,859
10,19,right,male,3,55,凡我,T.bmp,Goodother,,,No,m,m,1,745
10,19,right,male,3,56,坏人,T.bmp,Goodother,,,No,m,m,1,663
10,19,right,male,3,57,坏我,Tra.bmp,Badself,,,Yes,k,k,1,773
10,19,right,male,3,58,坏我,Tra.bmp,Badself,,,Yes,k,k,1,641
10,19,right,male,3,59,好人,C.bmp,Normalother,,,No,m,m,1,667
10,19,right,male,3,60,凡我,P.bmp,Normalself,,,Yes,k,k,1,713
10,19,right,male,3,61,凡我,C.bmp,Normalother,,,No,m,m,1,629
10,19,right,male,3,62,坏我,Tra.bmp,Badself,,,Yes,k,k,1,725
10,19,right,male,3,63,凡人,C.bmp,Normalother,,,Yes,k,k,1,753
10,19,right,male,3,64,凡我,S.bmp,Badother,,,No,m,m,1,839
10,19,right,male,3,65,凡人,C.bmp,Normalother,,,Yes,k,k,1,858
10,19,right,male,3,66,凡人,C.bmp,Normalother,,,Yes,k,k,1,550
10,19,right,male,3,67,好人,T.bmp,Goodother,,,Yes,k,k,1,591
10,19,right,male,3,68,好人,P.bmp,Normalself,,,No,m,m,1,674
10,19,right,male,3,69,坏我,Tra.bmp,Badself,,,Yes,k,k,1,811
10,19,right,male,3,70,凡我,T.bmp,Goodother,,,No,m,m,1,665
10,19,right,male,3,71,好人,S.bmp,Badother,,,No,m,m,1,1004
10,19,right,male,3,72,好人,D.bmp,Goodself,,,No,k,m,0,637
10,19,right,male,3,73,好人,T.bmp,Goodother,,,Yes,k,k,1,537
10,19,right,male,3,74,凡人,D.bmp,Goodself,,,No,m,m,1,596
10,19,right,male,3,75,好人,T.bmp,Goodother,,,Yes,k,k,1,781
10,19,right,male,3,76,凡人,S.bmp,Badother,,,No,m,m,1,622
10,19,right,male,3,77,坏人,S.bmp,Badother,,,Yes,k,k,1,785
10,19,right,male,3,78,凡我,P.bmp,Normalself,,,Yes,k,k,1,815
10,19,right,male,3,79,坏人,D.bmp,Goodself,,,No,m,m,1,792
10,19,right,male,3,80,好我,T.bmp,Goodother,,,No,k,m,0,601
10,19,right,male,3,81,好我,D.bmp,Goodself,,,Yes,k,k,1,535
10,19,right,male,3,82,好人,T.bmp,Goodother,,,Yes,k,k,1,693
10,19,right,male,3,83,好人,C.bmp,Normalother,,,No,m,m,1,771
10,19,right,male,3,84,凡我,D.bmp,Goodself,,,No,m,m,1,735
10,19,right,male,3,85,好我,D.bmp,Goodself,,,Yes,,k,0,0
10,19,right,male,3,86,好我,D.bmp,Goodself,,,Yes,k,k,1,497
10,19,right,male,3,87,坏我,Tra.bmp,Badself,,,Yes,,k,0,0
10,19,right,male,3,88,好我,C.bmp,Normalother,,,No,,m,0,0
10,19,right,male,3,89,坏人,P.bmp,Normalself,,,No,,m,0,0
10,19,right,male,3,90,坏我,T.bmp,Goodother,,,No,m,m,1,758
10,19,right,male,3,91,凡人,Tra.bmp,Badself,,,No,,m,0,0
10,19,right,male,3,92,凡人,C.bmp,Normalother,,,Yes,,k,0,0
10,19,right,male,3,93,坏我,C.bmp,Normalother,,,No,,m,0,0
10,19,right,male,3,94,好我,D.bmp,Goodself,,,Yes,,k,0,0
10,19,right,male,3,95,凡人,C.bmp,Normalother,,,Yes,,k,0,0
10,19,right,male,3,96,好我,D.bmp,Goodself,,,Yes,,k,0,0
10,19,right,male,3,97,坏人,S.bmp,Badother,,,Yes,k,k,1,1022
10,19,right,male,3,98,坏人,S.bmp,Badother,,,Yes,,k,0,0
10,19,right,male,3,99,凡我,P.bmp,Normalself,,,Yes,k,k,1,813
10,19,right,male,3,100,凡我,P.bmp,Normalself,,,Yes,m,k,0,675
10,19,right,male,3,101,凡人,T.bmp,Goodother,,,No,k,m,0,598
10,19,right,male,3,102,坏人,T.bmp,Goodother,,,No,m,m,1,895
10,19,right,male,3,103,好我,Tra.bmp,Badself,,,No,m,m,1,1083
10,19,right,male,3,104,坏人,C.bmp,Normalother,,,No,m,m,1,1035
10,19,right,male,3,105,凡我,P.bmp,Normalself,,,Yes,k,k,1,746
10,19,right,male,3,106,凡我,Tra.bmp,Badself,,,No,m,m,1,1040
10,19,right,male,3,107,好人,Tra.bmp,Badself,,,No,m,m,1,931
10,19,right,male,3,108,坏人,Tra.bmp,Badself,,,No,,m,0,0
10,19,right,male,3,109,坏我,P.bmp,Normalself,,,No,,m,0,0
10,19,right,male,3,110,坏我,Tra.bmp,Badself,,,Yes,,k,0,0
10,19,right,male,3,111,好我,S.bmp,Badother,,,No,m,m,1,655
10,19,right,male,3,112,好我,P.bmp,Normalself,,,No,m,m,1,725
10,19,right,male,3,113,凡人,P.bmp,Normalself,,,No,m,m,1,992
10,19,right,male,3,114,坏我,D.bmp,Goodself,,,No,m,m,1,804
10,19,right,male,3,115,凡我,P.bmp,Normalself,,,Yes,k,k,1,789
10,19,right,male,3,116,坏我,S.bmp,Badother,,,No,k,m,0,744
10,19,right,male,3,117,坏我,Tra.bmp,Badself,,,Yes,k,k,1,502
10,19,right,male,3,118,坏人,S.bmp,Badother,,,Yes,m,k,0,762
10,19,right,male,3,119,坏人,S.bmp,Badother,,,Yes,k,k,1,397
10,19,right,male,3,120,好人,T.bmp,Goodother,,,Yes,m,k,0,625
10,19,right,male,4,1,凡人,C.bmp,Normalother,,,Yes,k,k,1,761
10,19,right,male,4,2,坏人,T.bmp,Goodother,,,No,m,m,1,744
10,19,right,male,4,3,坏人,Tra.bmp,Badself,,,No,k,m,0,526
10,19,right,male,4,4,坏人,C.bmp,Normalother,,,No,m,m,1,606
10,19,right,male,4,5,凡我,S.bmp,Badother,,,No,m,m,1,738
10,19,right,male,4,6,好人,P.bmp,Normalself,,,No,m,m,1,677
10,19,right,male,4,7,坏人,P.bmp,Normalself,,,No,m,m,1,883
10,19,right,male,4,8,凡我,Tra.bmp,Badself,,,No,m,m,1,786
10,19,right,male,4,9,凡人,P.bmp,Normalself,,,No,k,m,0,757
10,19,right,male,4,10,坏我,Tra.bmp,Badself,,,Yes,k,k,1,758
10,19,right,male,4,11,好我,D.bmp,Goodself,,,Yes,k,k,1,716
10,19,right,male,4,12,坏我,S.bmp,Badother,,,No,m,m,1,1082
10,19,right,male,4,13,坏我,Tra.bmp,Badself,,,Yes,k,k,1,563
10,19,right,male,4,14,好我,P.bmp,Normalself,,,No,m,m,1,687
10,19,right,male,4,15,坏人,S.bmp,Badother,,,Yes,k,k,1,858
10,19,right,male,4,16,坏我,T.bmp,Goodother,,,No,m,m,1,568
10,19,right,male,4,17,凡我,D.bmp,Goodself,,,No,m,m,1,864
10,19,right,male,4,18,坏我,C.bmp,Normalother,,,No,m,m,1,761
10,19,right,male,4,19,凡人,S.bmp,Badother,,,No,k,m,0,626
10,19,right,male,4,20,坏我,D.bmp,Goodself,,,No,m,m,1,728
10,19,right,male,4,21,好人,S.bmp,Badother,,,No,m,m,1,646
10,19,right,male,4,22,好我,D.bmp,Goodself,,,Yes,m,k,0,559
10,19,right,male,4,23,好人,T.bmp,Goodother,,,Yes,k,k,1,746
10,19,right,male,4,24,坏人,D.bmp,Goodself,,,No,m,m,1,883
10,19,right,male,4,25,坏人,S.bmp,Badother,,,Yes,k,k,1,606
10,19,right,male,4,26,凡我,P.bmp,Normalself,,,Yes,m,k,0,612
10,19,right,male,4,27,凡人,T.bmp,Goodother,,,No,m,m,1,725
10,19,right,male,4,28,好人,T.bmp,Goodother,,,Yes,,k,0,0
10,19,right,male,4,29,凡人,C.bmp,Normalother,,,Yes,m,k,0,633
10,19,right,male,4,30,坏我,Tra.bmp,Badself,,,Yes,,k,0,0
10,19,right,male,4,31,凡我,C.bmp,Normalother,,,No,m,m,1,1024
10,19,right,male,4,32,坏我,Tra.bmp,Badself,,,Yes,k,k,1,780
10,19,right,male,4,33,凡我,P.bmp,Normalself,,,Yes,m,k,0,735
10,19,right,male,4,34,坏人,S.bmp,Badother,,,Yes,k,k,1,603
10,19,right,male,4,35,好我,D.bmp,Goodself,,,Yes,k,k,1,641
10,19,right,male,4,36,好人,T.bmp,Goodother,,,Yes,k,k,1,743
10,19,right,male,4,37,凡我,T.bmp,Goodother,,,No,m,m,1,642
10,19,right,male,4,38,好我,C.bmp,Normalother,,,No,m,m,1,654
10,19,right,male,4,39,坏我,P.bmp,Normalself,,,No,m,m,1,791
10,19,right,male,4,40,好我,Tra.bmp,Badself,,,No,m,m,1,663
10,19,right,male,4,41,凡人,D.bmp,Goodself,,,No,m,m,1,683
10,19,right,male,4,42,凡我,P.bmp,Normalself,,,Yes,m,k,0,721
10,19,right,male,4,43,好人,C.bmp,Normalother,,,No,m,m,1,695
10,19,right,male,4,44,坏我,Tra.bmp,Badself,,,Yes,k,k,1,744
10,19,right,male,4,45,凡人,C.bmp,Normalother,,,Yes,k,k,1,585
10,19,right,male,4,46,凡人,Tra.bmp,Badself,,,No,m,m,1,844
10,19,right,male,4,47,凡我,P.bmp,Normalself,,,Yes,k,k,1,595
10,19,right,male,4,48,坏人,S.bmp,Badother,,,Yes,k,k,1,689
10,19,right,male,4,49,凡我,P.bmp,Normalself,,,Yes,k,k,1,943
10,19,right,male,4,50,好我,D.bmp,Goodself,,,Yes,k,k,1,712
10,19,right,male,4,51,凡人,C.bmp,Normalother,,,Yes,k,k,1,666
10,19,right,male,4,52,好我,D.bmp,Goodself,,,Yes,k,k,1,611
10,19,right,male,4,53,好人,D.bmp,Goodself,,,No,m,m,1,732
10,19,right,male,4,54,好人,T.bmp,Goodother,,,Yes,k,k,1,501
10,19,right,male,4,55,好我,S.bmp,Badother,,,No,,m,0,0
10,19,right,male,4,56,坏人,S.bmp,Badother,,,Yes,k,k,1,644
10,19,right,male,4,57,凡人,C.bmp,Normalother,,,Yes,k,k,1,559
10,19,right,male,4,58,好人,Tra.bmp,Badself,,,No,m,m,1,661
10,19,right,male,4,59,好我,T.bmp,Goodother,,,No,m,m,1,689
10,19,right,male,4,60,好人,T.bmp,Goodother,,,Yes,k,k,1,593
10,19,right,male,4,61,凡人,C.bmp,Normalother,,,Yes,k,k,1,618
10,19,right,male,4,62,凡我,P.bmp,Normalself,,,Yes,k,k,1,619
10,19,right,male,4,63,好人,D.bmp,Goodself,,,No,m,m,1,830
10,19,right,male,4,64,坏我,P.bmp,Normalself,,,No,m,m,1,677
10,19,right,male,4,65,坏我,Tra.bmp,Badself,,,Yes,m,k,0,771
10,19,right,male,4,66,坏我,D.bmp,Goodself,,,No,m,m,1,630
10,19,right,male,4,67,坏我,T.bmp,Goodother,,,No,m,m,1,674
10,19,right,male,4,68,坏人,D.bmp,Goodself,,,No,m,m,1,754
10,19,right,male,4,69,好我,T.bmp,Goodother,,,No,m,m,1,649
10,19,right,male,4,70,好我,D.bmp,Goodself,,,Yes,k,k,1,1068
10,19,right,male,4,71,凡人,P.bmp,Normalself,,,No,k,m,0,930
10,19,right,male,4,72,坏我,Tra.bmp,Badself,,,Yes,k,k,1,854
10,19,right,male,4,73,好人,T.bmp,Goodother,,,Yes,,k,0,0
10,19,right,male,4,74,好人,P.bmp,Normalself,,,No,m,m,1,559
10,19,right,male,4,75,好人,C.bmp,Normalother,,,No,m,m,1,632
10,19,right,male,4,76,凡人,C.bmp,Normalother,,,Yes,k,k,1,721
10,19,right,male,4,77,坏人,S.bmp,Badother,,,Yes,k,k,1,623
10,19,right,male,4,78,好我,D.bmp,Goodself,,,Yes,k,k,1,685
10,19,right,male,4,79,好人,T.bmp,Goodother,,,Yes,k,k,1,667
10,19,right,male,4,80,凡我,P.bmp,Normalself,,,Yes,k,k,1,748
10,19,right,male,4,81,坏我,C.bmp,Normalother,,,No,m,m,1,943
10,19,right,male,4,82,坏人,S.bmp,Badother,,,Yes,k,k,1,502
10,19,right,male,4,83,坏我,S.bmp,Badother,,,No,k,m,0,584
10,19,right,male,4,84,好我,C.bmp,Normalother,,,No,m,m,1,649
10,19,right,male,4,85,好我,D.bmp,Goodself,,,Yes,k,k,1,791
10,19,right,male,4,86,坏我,Tra.bmp,Badself,,,Yes,k,k,1,640
10,19,right,male,4,87,好人,T.bmp,Goodother,,,Yes,k,k,1,750
10,19,right,male,4,88,坏人,S.bmp,Badother,,,Yes,k,k,1,884
10,19,right,male,4,89,坏人,S.bmp,Badother,,,Yes,k,k,1,610
10,19,right,male,4,90,好人,S.bmp,Badother,,,No,m,m,1,656
10,19,right,male,4,91,好人,Tra.bmp,Badself,,,No,m,m,1,1057
10,19,right,male,4,92,凡我,P.bmp,Normalself,,,Yes,m,k,0,773
10,19,right,male,4,93,凡我,S.bmp,Badother,,,No,m,m,1,629
10,19,right,male,4,94,凡人,C.bmp,Normalother,,,Yes,k,k,1,604
10,19,right,male,4,95,坏人,P.bmp,Normalself,,,No,m,m,1,882
10,19,right,male,4,96,坏人,T.bmp,Goodother,,,No,k,m,0,597
10,19,right,male,4,97,凡人,T.bmp,Goodother,,,No,m,m,1,630
10,19,right,male,4,98,凡人,Tra.bmp,Badself,,,No,m,m,1,748
10,19,right,male,4,99,好我,S.bmp,Badother,,,No,m,m,1,643
10,19,right,male,4,100,坏我,Tra.bmp,Badself,,,Yes,k,k,1,635
10,19,right,male,4,101,好我,D.bmp,Goodself,,,Yes,k,k,1,639
10,19,right,male,4,102,好人,T.bmp,Goodother,,,Yes,m,k,0,784
10,19,right,male,4,103,凡我,D.bmp,Goodself,,,No,,m,0,0
10,19,right,male,4,104,好人,T.bmp,Goodother,,,Yes,k,k,1,668
10,19,right,male,4,105,好我,Tra.bmp,Badself,,,No,m,m,1,733
10,19,right,male,4,106,好我,P.bmp,Normalself,,,No,m,m,1,813
10,19,right,male,4,107,凡人,D.bmp,Goodself,,,No,k,m,0,745
10,19,right,male,4,108,坏人,C.bmp,Normalother,,,No,m,m,1,610
10,19,right,male,4,109,凡我,T.bmp,Goodother,,,No,m,m,1,861
10,19,right,male,4,110,凡我,P.bmp,Normalself,,,Yes,m,k,0,657
10,19,right,male,4,111,凡我,Tra.bmp,Badself,,,No,m,m,1,620
10,19,right,male,4,112,坏人,S.bmp,Badother,,,Yes,k,k,1,717
10,19,right,male,4,113,凡我,C.bmp,Normalother,,,No,m,m,1,728
10,19,right,male,4,114,坏人,Tra.bmp,Badself,,,No,k,m,0,692
10,19,right,male,4,115,凡人,S.bmp,Badother,,,No,m,m,1,737
10,19,right,male,4,116,坏我,Tra.bmp,Badself,,,Yes,k,k,1,775
10,19,right,male,4,117,凡人,C.bmp,Normalother,,,Yes,k,k,1,720
10,19,right,male,4,118,凡我,P.bmp,Normalself,,,Yes,k,k,1,801
10,19,right,male,4,119,好我,D.bmp,Goodself,,,Yes,k,k,1,570
10,19,right,male,4,120,凡人,C.bmp,Normalother,,,Yes,k,k,1,749
10,19,right,male,5,1,凡人,C.bmp,Normalother,,,Yes,k,k,1,953
10,19,right,male,5,2,凡我,C.bmp,Normalother,,,No,m,m,1,623
10,19,right,male,5,3,好我,D.bmp,Goodself,,,Yes,m,k,0,947
10,19,right,male,5,4,好我,S.bmp,Badother,,,No,m,m,1,516
10,19,right,male,5,5,坏人,T.bmp,Goodother,,,No,m,m,1,642
10,19,right,male,5,6,好人,T.bmp,Goodother,,,Yes,k,k,1,451
10,19,right,male,5,7,好人,T.bmp,Goodother,,,Yes,k,k,1,443
10,19,right,male,5,8,凡我,S.bmp,Badother,,,No,,m,0,0
10,19,right,male,5,9,好我,D.bmp,Goodself,,,Yes,k,k,1,677
10,19,right,male,5,10,好人,T.bmp,Goodother,,,Yes,k,k,1,590
10,19,right,male,5,11,坏我,Tra.bmp,Badself,,,Yes,k,k,1,700
10,19,right,male,5,12,好我,T.bmp,Goodother,,,No,m,m,1,656
10,19,right,male,5,13,凡我,D.bmp,Goodself,,,No,m,m,1,878
10,19,right,male,5,14,坏我,Tra.bmp,Badself,,,Yes,k,k,1,580
10,19,right,male,5,15,坏人,S.bmp,Badother,,,Yes,k,k,1,621
10,19,right,male,5,16,好我,D.bmp,Goodself,,,Yes,m,k,0,880
10,19,right,male,5,17,凡我,T.bmp,Goodother,,,No,m,m,1,653
10,19,right,male,5,18,坏我,Tra.bmp,Badself,,,Yes,k,k,1,646
10,19,right,male,5,19,好人,T.bmp,Goodother,,,Yes,k,k,1,639
10,19,right,male,5,20,凡人,C.bmp,Normalother,,,Yes,k,k,1,917
10,19,right,male,5,21,好人,S.bmp,Badother,,,No,m,m,1,774
10,19,right,male,5,22,坏人,P.bmp,Normalself,,,No,k,m,0,932
10,19,right,male,5,23,坏我,Tra.bmp,Badself,,,Yes,k,k,1,808
10,19,right,male,5,24,好人,Tra.bmp,Badself,,,No,m,m,1,696
10,19,right,male,5,25,坏人,S.bmp,Badother,,,Yes,k,k,1,548
10,19,right,male,5,26,好我,Tra.bmp,Badself,,,No,k,m,0,858
10,19,right,male,5,27,凡我,P.bmp,Normalself,,,Yes,k,k,1,728
10,19,right,male,5,28,坏我,P.bmp,Normalself,,,No,m,m,1,860
10,19,right,male,5,29,凡我,Tra.bmp,Badself,,,No,m,m,1,618
10,19,right,male,5,30,坏我,D.bmp,Goodself,,,No,k,m,0,888
10,19,right,male,5,31,坏我,S.bmp,Badother,,,No,m,m,1,827
10,19,right,male,5,32,好人,C.bmp,Normalother,,,No,m,m,1,746
10,19,right,male,5,33,凡人,C.bmp,Normalother,,,Yes,k,k,1,781
10,19,right,male,5,34,凡我,P.bmp,Normalself,,,Yes,k,k,1,694
10,19,right,male,5,35,凡人,C.bmp,Normalother,,,Yes,k,k,1,702
10,19,right,male,5,36,好我,P.bmp,Normalself,,,No,m,m,1,772
10,19,right,male,5,37,凡人,S.bmp,Badother,,,No,m,m,1,763
10,19,right,male,5,38,坏我,T.bmp,Goodother,,,No,m,m,1,715
10,19,right,male,5,39,好人,T.bmp,Goodother,,,Yes,k,k,1,602
10,19,right,male,5,40,坏我,Tra.bmp,Badself,,,Yes,k,k,1,749
10,19,right,male,5,41,好我,C.bmp,Normalother,,,No,m,m,1,601
10,19,right,male,5,42,凡人,D.bmp,Goodself,,,No,m,m,1,649
10,19,right,male,5,43,凡我,P.bmp,Normalself,,,Yes,k,k,1,824
10,19,right,male,5,44,凡我,P.bmp,Normalself,,,Yes,k,k,1,568
10,19,right,male,5,45,凡人,C.bmp,Normalother,,,Yes,k,k,1,622
10,19,right,male,5,46,坏人,C.bmp,Normalother,,,No,m,m,1,607
10,19,right,male,5,47,凡人,Tra.bmp,Badself,,,No,m,m,1,709
10,19,right,male,5,48,好人,P.bmp,Normalself,,,No,m,m,1,659
10,19,right,male,5,49,好我,D.bmp,Goodself,,,Yes,k,k,1,883
10,19,right,male,5,50,凡人,P.bmp,Normalself,,,No,m,m,1,977
10,19,right,male,5,51,坏我,C.bmp,Normalother,,,No,m,m,1,706
10,19,right,male,5,52,坏人,D.bmp,Goodself,,,No,m,m,1,907
10,19,right,male,5,53,坏人,Tra.bmp,Badself,,,No,m,m,1,585
10,19,right,male,5,54,坏人,S.bmp,Badother,,,Yes,k,k,1,434
10,19,right,male,5,55,好人,D.bmp,Goodself,,,No,k,m,0,947
10,19,right,male,5,56,好我,D.bmp,Goodself,,,Yes,k,k,1,641
10,19,right,male,5,57,凡我,P.bmp,Normalself,,,Yes,k,k,1,908
10,19,right,male,5,58,坏人,S.bmp,Badother,,,Yes,k,k,1,570
10,19,right,male,5,59,凡人,T.bmp,Goodother,,,No,m,m,1,598
10,19,right,male,5,60,坏人,S.bmp,Badother,,,Yes,k,k,1,866
10,19,right,male,5,61,凡人,S.bmp,Badother,,,No,m,m,1,672
10,19,right,male,5,62,坏我,T.bmp,Goodother,,,No,m,m,1,774
10,19,right,male,5,63,凡人,C.bmp,Normalother,,,Yes,k,k,1,860
10,19,right,male,5,64,好我,D.bmp,Goodself,,,Yes,k,k,1,773
10,19,right,male,5,65,凡我,S.bmp,Badother,,,No,m,m,1,776
10,19,right,male,5,66,凡我,P.bmp,Normalself,,,Yes,k,k,1,790
10,19,right,male,5,67,坏人,T.bmp,Goodother,,,No,m,m,1,810
10,19,right,male,5,68,好人,P.bmp,Normalself,,,No,m,m,1,736
10,19,right,male,5,69,好人,Tra.bmp,Badself,,,No,m,m,1,678
10,19,right,male,5,70,好人,T.bmp,Goodother,,,Yes,k,k,1,495
10,19,right,male,5,71,好我,D.bmp,Goodself,,,Yes,k,k,1,736
10,19,right,male,5,72,坏我,P.bmp,Normalself,,,No,m,m,1,750
10,19,right,male,5,73,好人,T.bmp,Goodother,,,Yes,k,k,1,748
10,19,right,male,5,74,坏人,D.bmp,Goodself,,,No,m,m,1,687
10,19,right,male,5,75,好人,T.bmp,Goodother,,,Yes,m,k,0,835
10,19,right,male,5,76,坏我,Tra.bmp,Badself,,,Yes,k,k,1,793
10,19,right,male,5,77,坏人,S.bmp,Badother,,,Yes,k,k,1,623
10,19,right,male,5,78,好人,T.bmp,Goodother,,,Yes,k,k,1,981
10,19,right,male,5,79,坏人,S.bmp,Badother,,,Yes,k,k,1,627
10,19,right,male,5,80,凡人,Tra.bmp,Badself,,,No,m,m,1,690
10,19,right,male,5,81,好人,D.bmp,Goodself,,,No,k,m,0,807
10,19,right,male,5,82,凡我,C.bmp,Normalother,,,No,m,m,1,661
10,19,right,male,5,83,好我,Tra.bmp,Badself,,,No,m,m,1,720
10,19,right,male,5,84,好人,S.bmp,Badother,,,No,k,m,0,753
10,19,right,male,5,85,好人,C.bmp,Normalother,,,No,m,m,1,685
10,19,right,male,5,86,坏人,S.bmp,Badother,,,Yes,k,k,1,664
10,19,right,male,5,87,坏我,Tra.bmp,Badself,,,Yes,m,k,0,718
10,19,right,male,5,88,坏我,S.bmp,Badother,,,No,m,m,1,738
10,19,right,male,5,89,坏人,Tra.bmp,Badself,,,No,k,m,0,618
10,19,right,male,5,90,凡我,P.bmp,Normalself,,,Yes,k,k,1,841
10,19,right,male,5,91,好我,T.bmp,Goodother,,,No,k,m,0,799
10,19,right,male,5,92,凡我,D.bmp,Goodself,,,No,m,m,1,786
10,19,right,male,5,93,凡我,P.bmp,Normalself,,,Yes,k,k,1,632
10,19,right,male,5,94,凡人,T.bmp,Goodother,,,No,m,m,1,748
10,19,right,male,5,95,好我,C.bmp,Normalother,,,No,m,m,1,612
10,19,right,male,5,96,好我,S.bmp,Badother,,,No,m,m,1,664
10,19,right,male,5,97,坏我,D.bmp,Goodself,,,No,m,m,1,710
10,19,right,male,5,98,坏我,Tra.bmp,Badself,,,Yes,k,k,1,873
10,19,right,male,5,99,坏我,Tra.bmp,Badself,,,Yes,m,k,0,512
10,19,right,male,5,100,坏人,S.bmp,Badother,,,Yes,k,k,1,593
10,19,right,male,5,101,好我,D.bmp,Goodself,,,Yes,k,k,1,751
10,19,right,male,5,102,凡我,P.bmp,Normalself,,,Yes,k,k,1,736
10,19,right,male,5,103,凡人,C.bmp,Normalother,,,Yes,k,k,1,643
10,19,right,male,5,104,凡人,C.bmp,Normalother,,,Yes,k,k,1,558
10,19,right,male,5,105,好人,T.bmp,Goodother,,,Yes,k,k,1,562
10,19,right,male,5,106,坏人,S.bmp,Badother,,,Yes,k,k,1,581
10,19,right,male,5,107,坏人,P.bmp,Normalself,,,No,m,m,1,683
10,19,right,male,5,108,凡我,Tra.bmp,Badself,,,No,m,m,1,956
10,19,right,male,5,109,坏我,C.bmp,Normalother,,,No,m,m,1,802
10,19,right,male,5,110,坏我,Tra.bmp,Badself,,,Yes,k,k,1,806
10,19,right,male,5,111,凡人,P.bmp,Normalself,,,No,k,m,0,665
10,19,right,male,5,112,凡人,D.bmp,Goodself,,,No,m,m,1,625
10,19,right,male,5,113,好我,D.bmp,Goodself,,,Yes,k,k,1,767
10,19,right,male,5,114,凡人,C.bmp,Normalother,,,Yes,k,k,1,806
10,19,right,male,5,115,好我,D.bmp,Goodself,,,Yes,k,k,1,652
10,19,right,male,5,116,凡我,T.bmp,Goodother,,,No,m,m,1,660
10,19,right,male,5,117,凡人,C.bmp,Normalother,,,Yes,k,k,1,776
10,19,right,male,5,118,凡我,P.bmp,Normalself,,,Yes,m,k,0,595
10,19,right,male,5,119,好我,P.bmp,Normalself,,,No,m,m,1,713
10,19,right,male,5,120,坏人,C.bmp,Normalother,,,No,m,m,1,744
10,19,right,male,6,1,凡我,P.bmp,Normalself,,,Yes,m,k,0,725
10,19,right,male,6,2,凡人,P.bmp,Normalself,,,No,k,m,0,534
10,19,right,male,6,3,坏人,P.bmp,Normalself,,,No,m,m,1,651
10,19,right,male,6,4,凡人,C.bmp,Normalother,,,Yes,k,k,1,697
10,19,right,male,6,5,凡人,C.bmp,Normalother,,,Yes,k,k,1,602
10,19,right,male,6,6,坏人,S.bmp,Badother,,,Yes,k,k,1,737
10,19,right,male,6,7,凡我,P.bmp,Normalself,,,Yes,k,k,1,820
10,19,right,male,6,8,坏我,D.bmp,Goodself,,,No,m,m,1,754
10,19,right,male,6,9,坏人,C.bmp,Normalother,,,No,m,m,1,726
10,19,right,male,6,10,坏我,P.bmp,Normalself,,,No,m,m,1,686
10,19,right,male,6,11,坏人,S.bmp,Badother,,,Yes,k,k,1,623
10,19,right,male,6,12,坏我,S.bmp,Badother,,,No,m,m,1,800
10,19,right,male,6,13,好我,C.bmp,Normalother,,,No,m,m,1,614
10,19,right,male,6,14,凡我,T.bmp,Goodother,,,No,m,m,1,940
10,19,right,male,6,15,坏人,S.bmp,Badother,,,Yes,k,k,1,648
10,19,right,male,6,16,坏我,Tra.bmp,Badself,,,Yes,k,k,1,665
10,19,right,male,6,17,凡我,P.bmp,Normalself,,,Yes,k,k,1,745
10,19,right,male,6,18,好人,T.bmp,Goodother,,,Yes,k,k,1,714
10,19,right,male,6,19,坏我,C.bmp,Normalother,,,No,m,m,1,616
10,19,right,male,6,20,凡我,P.bmp,Normalself,,,Yes,k,k,1,793
10,19,right,male,6,21,好人,D.bmp,Goodself,,,No,m,m,1,685
10,19,right,male,6,22,凡我,Tra.bmp,Badself,,,No,m,m,1,787
10,19,right,male,6,23,凡人,C.bmp,Normalother,,,Yes,k,k,1,635
10,19,right,male,6,24,好人,P.bmp,Normalself,,,No,m,m,1,887
10,19,right,male,6,25,坏我,Tra.bmp,Badself,,,Yes,k,k,1,605
10,19,right,male,6,26,凡人,Tra.bmp,Badself,,,No,m,m,1,622
10,19,right,male,6,27,凡人,S.bmp,Badother,,,No,m,m,1,751
10,19,right,male,6,28,坏人,T.bmp,Goodother,,,No,m,m,1,709
10,19,right,male,6,29,凡人,T.bmp,Goodother,,,No,m,m,1,717
10,19,right,male,6,30,坏人,Tra.bmp,Badself,,,No,,m,0,0
10,19,right,male,6,31,坏我,T.bmp,Goodother,,,No,m,m,1,770
10,19,right,male,6,32,凡我,C.bmp,Normalother,,,No,m,m,1,650
10,19,right,male,6,33,好人,T.bmp,Goodother,,,Yes,k,k,1,627
10,19,right,male,6,34,好我,T.bmp,Goodother,,,No,m,m,1,671
10,19,right,male,6,35,好我,S.bmp,Badother,,,No,m,m,1,689
10,19,right,male,6,36,凡我,D.bmp,Goodself,,,No,m,m,1,735
10,19,right,male,6,37,好人,T.bmp,Goodother,,,Yes,k,k,1,838
10,19,right,male,6,38,坏我,Tra.bmp,Badself,,,Yes,k,k,1,878
10,19,right,male,6,39,好人,Tra.bmp,Badself,,,No,m,m,1,789
10,19,right,male,6,40,凡我,P.bmp,Normalself,,,Yes,k,k,1,995
10,19,right,male,6,41,好人,S.bmp,Badother,,,No,m,m,1,729
10,19,right,male,6,42,好我,D.bmp,Goodself,,,Yes,k,k,1,956
10,19,right,male,6,43,坏我,Tra.bmp,Badself,,,Yes,,k,0,0
10,19,right,male,6,44,凡人,C.bmp,Normalother,,,Yes,k,k,1,736
10,19,right,male,6,45,好人,T.bmp,Goodother,,,Yes,m,k,0,695
10,19,right,male,6,46,坏我,Tra.bmp,Badself,,,Yes,m,k,0,767
10,19,right,male,6,47,坏人,S.bmp,Badother,,,Yes,,k,0,0
10,19,right,male,6,48,凡人,D.bmp,Goodself,,,No,,m,0,0
10,19,right,male,6,49,好人,C.bmp,Normalother,,,No,m,m,1,898
10,19,right,male,6,50,凡人,C.bmp,Normalother,,,Yes,,k,0,0
10,19,right,male,6,51,好我,D.bmp,Goodself,,,Yes,k,k,1,721
10,19,right,male,6,52,好我,D.bmp,Goodself,,,Yes,m,k,0,631
10,19,right,male,6,53,好我,D.bmp,Goodself,,,Yes,k,k,1,541
10,19,right,male,6,54,好我,Tra.bmp,Badself,,,No,m,m,1,755
10,19,right,male,6,55,好我,P.bmp,Normalself,,,No,k,m,0,697
10,19,right,male,6,56,坏人,S.bmp,Badother,,,Yes,m,k,0,789
10,19,right,male,6,57,凡我,S.bmp,Badother,,,No,m,m,1,934
10,19,right,male,6,58,好人,T.bmp,Goodother,,,Yes,k,k,1,926
10,19,right,male,6,59,好我,D.bmp,Goodself,,,Yes,m,k,0,663
10,19,right,male,6,60,坏人,D.bmp,Goodself,,,No,m,m,1,848
10,19,right,male,6,61,凡我,P.bmp,Normalself,,,Yes,,k,0,0
10,19,right,male,6,62,凡我,Tra.bmp,Badself,,,No,m,m,1,900
10,19,right,male,6,63,凡我,C.bmp,Normalother,,,No,,m,0,0
10,19,right,male,6,64,坏我,Tra.bmp,Badself,,,Yes,,k,0,0
10,19,right,male,6,65,好我,D.bmp,Goodself,,,Yes,k,k,1,871
10,19,right,male,6,66,凡人,C.bmp,Normalother,,,Yes,k,k,1,695
10,19,right,male,6,67,坏人,S.bmp,Badother,,,Yes,k,k,1,853
10,19,right,male,6,68,好我,D.bmp,Goodself,,,Yes,m,k,0,1011
10,19,right,male,6,69,坏人,Tra.bmp,Badself,,,No,,m,0,0
10,19,right,male,6,70,凡我,D.bmp,Goodself,,,No,m,m,1,914
10,19,right,male,6,71,凡我,P.bmp,Normalself,,,Yes,,k,0,0
10,19,right,male,6,72,凡我,P.bmp,Normalself,,,Yes,,k,0,0
10,19,right,male,6,73,坏我,Tra.bmp,Badself,,,Yes,,k,0,0
10,19,right,male,6,74,坏人,P.bmp,Normalself,,,No,,m,0,0
10,19,right,male,6,75,凡人,C.bmp,Normalother,,,Yes,,k,0,0
10,19,right,male,6,76,好人,T.bmp,Goodother,,,Yes,k,k,1,790
10,19,right,male,6,77,坏我,C.bmp,Normalother,,,No,,m,0,0
10,19,right,male,6,78,坏人,S.bmp,Badother,,,Yes,,k,0,0
10,19,right,male,6,79,坏人,D.bmp,Goodself,,,No,m,m,1,651
10,19,right,male,6,80,好人,T.bmp,Goodother,,,Yes,k,k,1,631
10,19,right,male,6,81,凡人,Tra.bmp,Badself,,,No,m,m,1,805
10,19,right,male,6,82,坏我,P.bmp,Normalself,,,No,m,m,1,689
10,19,right,male,6,83,好我,S.bmp,Badother,,,No,m,m,1,607
10,19,right,male,6,84,坏人,S.bmp,Badother,,,Yes,k,k,1,791
10,19,right,male,6,85,凡我,T.bmp,Goodother,,,No,m,m,1,520
10,19,right,male,6,86,坏人,C.bmp,Normalother,,,No,m,m,1,641
10,19,right,male,6,87,好我,T.bmp,Goodother,,,No,k,m,0,863
10,19,right,male,6,88,坏我,Tra.bmp,Badself,,,Yes,k,k,1,837
10,19,right,male,6,89,好人,D.bmp,Goodself,,,No,m,m,1,860
10,19,right,male,6,90,凡我,P.bmp,Normalself,,,Yes,k,k,1,799
10,19,right,male,6,91,坏人,S.bmp,Badother,,,Yes,k,k,1,651
10,19,right,male,6,92,凡人,S.bmp,Badother,,,No,m,m,1,646
10,19,right,male,6,93,好人,S.bmp,Badother,,,No,m,m,1,831
10,19,right,male,6,94,好人,T.bmp,Goodother,,,Yes,k,k,1,656
10,19,right,male,6,95,好我,C.bmp,Normalother,,,No,m,m,1,654
10,19,right,male,6,96,好我,P.bmp,Normalself,,,No,m,m,1,582
10,19,right,male,6,97,坏我,T.bmp,Goodother,,,No,m,m,1,868
10,19,right,male,6,98,好人,T.bmp,Goodother,,,Yes,m,k,0,688
10,19,right,male,6,99,好我,D.bmp,Goodself,,,Yes,k,k,1,726
10,19,right,male,6,100,坏我,D.bmp,Goodself,,,No,m,m,1,575
10,19,right,male,6,101,凡我,P.bmp,Normalself,,,Yes,k,k,1,737
10,19,right,male,6,102,好人,T.bmp,Goodother,,,Yes,k,k,1,680
10,19,right,male,6,103,凡人,P.bmp,Normalself,,,No,m,m,1,859
10,19,right,male,6,104,凡人,D.bmp,Goodself,,,No,m,m,1,705
10,19,right,male,6,105,坏人,S.bmp,Badother,,,Yes,k,k,1,909
10,19,right,male,6,106,好我,D.bmp,Goodself,,,Yes,k,k,1,765
10,19,right,male,6,107,凡人,C.bmp,Normalother,,,Yes,k,k,1,748
10,19,right,male,6,108,好人,P.bmp,Normalself,,,No,m,m,1,730
10,19,right,male,6,109,好我,Tra.bmp,Badself,,,No,m,m,1,626
10,19,right,male,6,110,坏我,Tra.bmp,Badself,,,Yes,,k,0,0
10,19,right,male,6,111,坏人,T.bmp,Goodother,,,No,m,m,1,695
10,19,right,male,6,112,凡我,S.bmp,Badother,,,No,m,m,1,840
10,19,right,male,6,113,凡人,C.bmp,Normalother,,,Yes,k,k,1,646
10,19,right,male,6,114,好人,C.bmp,Normalother,,,No,m,m,1,599
10,19,right,male,6,115,好人,Tra.bmp,Badself,,,No,m,m,1,658
10,19,right,male,6,116,坏我,Tra.bmp,Badself,,,Yes,k,k,1,699
10,19,right,male,6,117,好我,D.bmp,Goodself,,,Yes,k,k,1,769
10,19,right,male,6,118,凡人,T.bmp,Goodother,,,No,m,m,1,679
10,19,right,male,6,119,凡人,C.bmp,Normalother,,,Yes,k,k,1,523
10,19,right,male,6,120,坏我,S.bmp,Badother,,,No,m,m,1,857
11,22,right,male,,1,好我,T.bmp,Normalself,moral,self,No,,k,0,0
11,22,right,male,,2,好我,S.bmp,Goodother,moral,self,No,k,k,1,706
11,22,right,male,,3,凡人,D.bmp,Normalother,normal,other,Yes,m,m,1,1006
11,22,right,male,,4,凡人,D.bmp,Normalother,normal,other,Yes,m,m,1,801
11,22,right,male,,5,好我,C.bmp,Badother,moral,self,No,k,k,1,803
11,22,right,male,,6,凡人,D.bmp,Normalother,normal,other,Yes,m,m,1,701
11,22,right,male,,7,好我,Tra.bmp,Goodself,moral,self,Yes,m,m,1,899
11,22,right,male,,8,凡人,D.bmp,Normalother,normal,other,Yes,m,m,1,1091
11,22,right,male,,9,好我,P.bmp,Badself,moral,self,No,m,k,0,811
11,22,right,male,,10,好人,T.bmp,Normalself,moral,other,No,k,k,1,989
11,22,right,male,,11,坏人,C.bmp,Badother,immoral,other,Yes,m,m,1,1086
11,22,right,male,,12,凡我,D.bmp,Normalother,normal,self,No,k,k,1,960
11,22,right,male,,13,凡我,T.bmp,Normalself,normal,self,Yes,k,m,0,1060
11,22,right,male,,14,凡我,T.bmp,Normalself,normal,self,Yes,m,m,1,780
11,22,right,male,,15,凡人,T.bmp,Normalself,normal,other,No,k,k,1,890
11,22,right,male,,16,坏我,P.bmp,Badself,immoral,self,Yes,,m,0,0
11,22,right,male,,17,凡我,T.bmp,Normalself,normal,self,Yes,m,m,1,1049
11,22,right,male,,18,凡人,Tra.bmp,Goodself,normal,other,No,k,k,1,899
11,22,right,male,,19,坏人,T.bmp,Normalself,immoral,other,No,m,k,0,962
11,22,right,male,,20,好人,Tra.bmp,Goodself,moral,other,No,m,k,0,844
11,22,right,male,,21,坏人,Tra.bmp,Goodself,immoral,other,No,m,k,0,938
11,22,right,male,,22,坏我,P.bmp,Badself,immoral,self,Yes,k,m,0,829
11,22,right,male,,23,坏人,C.bmp,Badother,immoral,other,Yes,m,m,1,911
11,22,right,male,,24,凡我,P.bmp,Badself,normal,self,No,,k,0,0
11,22,right,male,,25,好我,Tra.bmp,Goodself,moral,self,Yes,m,m,1,797
11,22,right,male,,26,坏我,P.bmp,Badself,immoral,self,Yes,k,m,0,667
11,22,right,male,,27,凡我,C.bmp,Badother,normal,self,No,,k,0,0
11,22,right,male,,28,坏我,D.bmp,Normalother,immoral,self,No,,k,0,0
11,22,right,male,,29,坏我,C.bmp,Badother,immoral,self,No,k,k,1,926
11,22,right,male,,30,好我,Tra.bmp,Goodself,moral,self,Yes,m,m,1,838
11,22,right,male,,31,凡人,S.bmp,Goodother,normal,other,No,m,k,0,1086
11,22,right,male,,32,凡人,C.bmp,Badother,normal,other,No,k,k,1,810
11,22,right,male,,33,坏人,C.bmp,Badother,immoral,other,Yes,m,m,1,982
11,22,right,male,,34,坏人,S.bmp,Goodother,immoral,other,No,,k,0,0
11,22,right,male,,35,凡我,Tra.bmp,Goodself,normal,self,No,k,k,1,949
11,22,right,male,,36,坏人,C.bmp,Badother,immoral,other,Yes,m,m,1,845
11,22,right,male,,37,坏我,P.bmp,Badself,immoral,self,Yes,m,m,1,1007
11,22,right,male,,38,好人,S.bmp,Goodother,moral,other,Yes,m,m,1,1021
11,22,right,male,,39,坏人,D.bmp,Normalother,immoral,other,No,k,k,1,1031
11,22,right,male,,40,好人,S.bmp,Goodother,moral,other,Yes,,m,0,0
11,22,right,male,,41,好人,P.bmp,Badself,moral,other,No,,k,0,0
11,22,right,male,,42,凡我,S.bmp,Goodother,normal,self,No,,k,0,0
11,22,right,male,,43,好人,S.bmp,Goodother,moral,other,Yes,,m,0,0
11,22,right,male,,44,凡我,T.bmp,Normalself,normal,self,Yes,k,m,0,980
11,22,right,male,,45,凡人,D.bmp,Normalother,normal,other,Yes,m,m,1,822
11,22,right,male,,46,好人,S.bmp,Goodother,moral,other,Yes,m,m,1,394
11,22,right,male,,47,好我,Tra.bmp,Goodself,moral,self,Yes,,m,0,0
11,22,right,male,,48,坏人,P.bmp,Badself,immoral,other,No,,k,0,0
11,22,right,male,,49,好人,C.bmp,Badother,moral,other,No,,k,0,0
11,22,right,male,,50,凡人,P.bmp,Badself,normal,other,No,,k,0,0
11,22,right,male,,51,坏人,C.bmp,Badother,immoral,other,Yes,,m,0,0
11,22,right,male,,52,坏我,Tra.bmp,Goodself,immoral,self,No,,k,0,0
11,22,right,male,,53,好我,D.bmp,Normalother,moral,self,No,,k,0,0
11,22,right,male,,54,好我,Tra.bmp,Goodself,moral,self,Yes,,m,0,0
11,22,right,male,,55,凡我,T.bmp,Normalself,normal,self,Yes,,m,0,0
11,22,right,male,,56,坏我,P.bmp,Badself,immoral,self,Yes,,m,0,0
11,22,right,male,,57,坏我,S.bmp,Goodother,immoral,self,No,,k,0,0
11,22,right,male,,58,好人,S.bmp,Goodother,moral,other,Yes,,m,0,0
11,22,right,male,,59,好人,D.bmp,Normalother,moral,other,No,,k,0,0
11,22,right,male,,60,坏我,T.bmp,Normalself,immoral,self,No,,k,0,0
11,22,right,male,,61,坏人,C.bmp,Badother,immoral,other,Yes,,m,0,0
11,22,right,male,,62,凡我,T.bmp,Normalself,normal,self,Yes,,m,0,0
11,22,right,male,,63,凡人,S.bmp,Goodother,normal,other,No,,k,0,0
11,22,right,male,,64,凡人,P.bmp,Badself,normal,other,No,,k,0,0
11,22,right,male,,65,坏人,C.bmp,Badother,immoral,other,Yes,m,m,1,123
11,22,right,male,,66,坏我,D.bmp,Normalother,immoral,self,No,k,k,1,965
11,22,right,male,,67,坏我,S.bmp,Goodother,immoral,self,No,m,k,0,1075
11,22,right,male,,68,凡人,Tra.bmp,Goodself,normal,other,No,m,k,0,1040
11,22,right,male,,69,坏我,T.bmp,Normalself,immoral,self,No,k,k,1,1082
11,22,right,male,,70,凡人,D.bmp,Normalother,normal,other,Yes,m,m,1,852
11,22,right,male,,71,好人,Tra.bmp,Goodself,moral,other,No,k,k,1,760
11,22,right,male,,72,坏我,C.bmp,Badother,immoral,self,No,m,k,0,1021
11,22,right,male,,73,凡人,D.bmp,Normalother,normal,other,Yes,m,m,1,897
11,22,right,male,,74,好我,Tra.bmp,Goodself,moral,self,Yes,m,m,1,989
11,22,right,male,,75,凡我,Tra.bmp,Goodself,normal,self,No,,k,0,0
11,22,right,male,,76,坏人,C.bmp,Badother,immoral,other,Yes,k,m,0,862
11,22,right,male,,77,好我,T.bmp,Normalself,moral,self,No,m,k,0,402
11,22,right,male,,78,坏人,T.bmp,Normalself,immoral,other,No,,k,0,0
11,22,right,male,,79,好我,Tra.bmp,Goodself,moral,self,Yes,,m,0,0
11,22,right,male,,80,坏我,P.bmp,Badself,immoral,self,Yes,k,m,0,960
11,22,right,male,,81,好人,T.bmp,Normalself,moral,other,No,,k,0,0
11,22,right,male,,82,凡我,T.bmp,Normalself,normal,self,Yes,m,m,1,745
11,22,right,male,,83,好我,P.bmp,Badself,moral,self,No,m,k,0,969
11,22,right,male,,84,好人,S.bmp,Goodother,moral,other,Yes,m,m,1,793
11,22,right,male,,85,坏人,C.bmp,Badother,immoral,other,Yes,k,m,0,873
11,22,right,male,,86,凡我,D.bmp,Normalother,normal,self,No,m,k,0,459
11,22,right,male,,87,凡人,D.bmp,Normalother,normal,other,Yes,m,m,1,495
11,22,right,male,,88,坏我,P.bmp,Badself,immoral,self,Yes,m,m,1,952
11,22,right,male,,89,坏我,P.bmp,Badself,immoral,self,Yes,,m,0,0
11,22,right,male,,90,好人,S.bmp,Goodother,moral,other,Yes,k,m,0,848
11,22,right,male,,91,凡人,D.bmp,Normalother,normal,other,Yes,,m,0,0
11,22,right,male,,92,好我,D.bmp,Normalother,moral,self,No,,k,0,0
11,22,right,male,,93,坏我,Tra.bmp,Goodself,immoral,self,No,,k,0,0
11,22,right,male,,94,凡我,P.bmp,Badself,normal,self,No,,k,0,0
11,22,right,male,,95,凡我,S.bmp,Goodother,normal,self,No,,k,0,0
11,22,right,male,,96,好我,Tra.bmp,Goodself,moral,self,Yes,,m,0,0
11,22,right,male,,97,好我,S.bmp,Goodother,moral,self,No,m,k,0,603
11,22,right,male,,98,好我,C.bmp,Badother,moral,self,No,m,k,0,531
11,22,right,male,,99,凡人,D.bmp,Normalother,normal,other,Yes,k,m,0,488
11,22,right,male,,100,凡人,C.bmp,Badother,normal,other,No,k,k,1,219
11,22,right,male,,101,好我,Tra.bmp,Goodself,moral,self,Yes,,m,0,0
11,22,right,male,,102,坏我,P.bmp,Badself,immoral,self,Yes,,m,0,0
11,22,right,male,,103,凡我,T.bmp,Normalself,normal,self,Yes,,m,0,0
11,22,right,male,,104,好人,D.bmp,Normalother,moral,other,No,,k,0,0
11,22,right,male,,105,好我,Tra.bmp,Goodself,moral,self,Yes,,m,0,0
11,22,right,male,,106,坏人,P.bmp,Badself,immoral,other,No,m,k,0,728
11,22,right,male,,107,凡我,C.bmp,Badother,normal,self,No,k,k,1,824
11,22,right,male,,108,坏人,Tra.bmp,Goodself,immoral,other,No,k,k,1,876
11,22,right,male,,109,好人,C.bmp,Badother,moral,other,No,,k,0,0
11,22,right,male,,110,好人,S.bmp,Goodother,moral,other,Yes,,m,0,0
11,22,right,male,,111,好人,P.bmp,Badself,moral,other,No,k,k,1,502
11,22,right,male,,112,凡我,T.bmp,Normalself,normal,self,Yes,m,m,1,953
11,22,right,male,,113,坏人,S.bmp,Goodother,immoral,other,No,,k,0,0
11,22,right,male,,114,凡人,T.bmp,Normalself,normal,other,No,k,k,1,767
11,22,right,male,,115,好人,S.bmp,Goodother,moral,other,Yes,k,m,0,767
11,22,right,male,,116,坏人,C.bmp,Badother,immoral,other,Yes,k,m,0,785
11,22,right,male,,117,好人,S.bmp,Goodother,moral,other,Yes,m,m,1,539
11,22,right,male,,118,坏我,P.bmp,Badself,immoral,self,Yes,m,m,1,1046
11,22,right,male,,119,坏人,D.bmp,Normalother,immoral,other,No,k,k,1,870
11,22,right,male,,120,凡我,T.bmp,Normalself,normal,self,Yes,m,m,1,1040
11,22,right,male,,121,坏我,P.bmp,Badself,immoral,self,Yes,k,m,0,805
11,22,right,male,,122,凡我,Tra.bmp,Goodself,normal,self,No,m,k,0,674
11,22,right,male,,123,好我,Tra.bmp,Goodself,moral,self,Yes,m,m,1,858
11,22,right,male,,124,凡我,P.bmp,Badself,normal,self,No,k,k,1,848
11,22,right,male,,125,好人,S.bmp,Goodother,moral,other,Yes,m,m,1,970
11,22,right,male,,126,坏我,C.bmp,Badother,immoral,self,No,k,k,1,809
11,22,right,male,,127,坏人,C.bmp,Badother,immoral,other,Yes,m,m,1,899
11,22,right,male,,128,好我,S.bmp,Goodother,moral,self,No,k,k,1,1043
11,22,right,male,,129,好人,Tra.bmp,Goodself,moral,other,No,m,k,0,847
11,22,right,male,,130,坏人,C.bmp,Badother,immoral,other,Yes,m,m,1,829
11,22,right,male,,131,凡人,S.bmp,Goodother,normal,other,No,k,k,1,948
11,22,right,male,,132,凡我,T.bmp,Normalself,normal,self,Yes,,m,0,0
11,22,right,male,,133,凡人,D.bmp,Normalother,normal,other,Yes,,m,0,0
11,22,right,male,,134,凡人,T.bmp,Normalself,normal,other,No,k,k,1,832
11,22,right,male,,135,坏人,S.bmp,Goodother,immoral,other,No,m,k,0,946
11,22,right,male,,136,凡我,S.bmp,Goodother,normal,self,No,k,k,1,848
11,22,right,male,,137,凡我,D.bmp,Normalother,normal,self,No,m,k,0,1046
11,22,right,male,,138,好我,P.bmp,Badself,moral,self,No,,k,0,0
11,22,right,male,,139,坏我,D.bmp,Normalother,immoral,self,No,k,k,1,795
11,22,right,male,,140,坏我,Tra.bmp,Goodself,immoral,self,No,,k,0,0
11,22,right,male,,141,凡我,T.bmp,Normalself,normal,self,Yes,k,m,0,1099
11,22,right,male,,142,坏我,T.bmp,Normalself,immoral,self,No,m,k,0,817
11,22,right,male,,143,坏我,P.bmp,Badself,immoral,self,Yes,m,m,1,659
11,22,right,male,,144,好我,Tra.bmp,Goodself,moral,self,Yes,m,m,1,1031
11,22,right,male,,145,好我,C.bmp,Badother,moral,self,No,k,k,1,1090
11,22,right,male,,146,坏人,P.bmp,Badself,immoral,other,No,,k,0,0
11,22,right,male,,147,凡人,D.bmp,Normalother,normal,other,Yes,,m,0,0
11,22,right,male,,148,好人,S.bmp,Goodother,moral,other,Yes,k,m,0,1007
11,22,right,male,,149,坏人,T.bmp,Normalself,immoral,other,No,,k,0,0
11,22,right,male,,150,凡我,T.bmp,Normalself,normal,self,Yes,,m,0,0
11,22,right,male,,151,坏我,P.bmp,Badself,immoral,self,Yes,,m,0,0
11,22,right,male,,152,坏人,C.bmp,Badother,immoral,other,Yes,,m,0,0
11,22,right,male,,153,坏人,C.bmp,Badother,immoral,other,Yes,,m,0,0
11,22,right,male,,154,凡我,T.bmp,Normalself,normal,self,Yes,,m,0,0
11,22,right,male,,155,坏人,Tra.bmp,Goodself,immoral,other,No,,k,0,0
11,22,right,male,,156,凡人,P.bmp,Badself,normal,other,No,,k,0,0
11,22,right,male,,157,凡我,T.bmp,Normalself,normal,self,Yes,,m,0,0
11,22,right,male,,158,凡人,Tra.bmp,Goodself,normal,other,No,,k,0,0
11,22,right,male,,159,好我,T.bmp,Normalself,moral,self,No,,k,0,0
11,22,right,male,,160,好我,D.bmp,Normalother,moral,self,No,,k,0,0
11,22,right,male,,161,好我,Tra.bmp,Goodself,moral,self,Yes,,m,0,0
11,22,right,male,,162,凡人,D.bmp,Normalother,normal,other,Yes,,m,0,0
11,22,right,male,,163,好人,D.bmp,Normalother,moral,other,No,,k,0,0
11,22,right,male,,164,坏人,C.bmp,Badother,immoral,other,Yes,,m,0,0
11,22,right,male,,165,凡人,D.bmp,Normalother,normal,other,Yes,,m,0,0
11,22,right,male,,166,好人,S.bmp,Goodother,moral,other,Yes,,m,0,0
11,22,right,male,,167,好人,S.bmp,Goodother,moral,other,Yes,,m,0,0
11,22,right,male,,168,好人,P.bmp,Badself,moral,other,No,,k,0,0
11,22,right,male,,169,凡我,C.bmp,Badother,normal,self,No,,k,0,0
11,22,right,male,,170,好我,Tra.bmp,Goodself,moral,self,Yes,,m,0,0
11,22,right,male,,171,坏我,P.bmp,Badself,immoral,self,Yes,,m,0,0
11,22,right,male,,172,好人,S.bmp,Goodother,moral,other,Yes,,m,0,0
11,22,right,male,,173,坏人,D.bmp,Normalother,immoral,other,No,,k,0,0
11,22,right,male,,174,坏我,S.bmp,Goodother,immoral,self,No,,k,0,0
11,22,right,male,,175,好人,C.bmp,Badother,moral,other,No,,k,0,0
11,22,right,male,,176,好我,Tra.bmp,Goodself,moral,self,Yes,,m,0,0
11,22,right,male,,177,好人,T.bmp,Normalself,moral,other,No,,k,0,0
11,22,right,male,,178,凡人,D.bmp,Normalother,normal,other,Yes,,m,0,0
11,22,right,male,,179,凡人,C.bmp,Badother,normal,other,No,,k,0,0
11,22,right,male,,180,坏我,P.bmp,Badself,immoral,self,Yes,,m,0,0
11,22,right,male,,181,坏我,P.bmp,Badself,immoral,self,Yes,k,m,0,1074
11,22,right,male,,182,凡人,D.bmp,Normalother,normal,other,Yes,m,m,1,1024
11,22,right,male,,183,凡人,D.bmp,Normalother,normal,other,Yes,m,m,1,660
11,22,right,male,,184,坏人,S.bmp,Goodother,immoral,other,No,,k,0,0
11,22,right,male,,185,坏我,P.bmp,Badself,immoral,self,Yes,,m,0,0
11,22,right,male,,186,凡人,D.bmp,Normalother,normal,other,Yes,m,m,1,784
11,22,right,male,,187,坏人,C.bmp,Badother,immoral,other,Yes,,m,0,0
11,22,right,male,,188,坏人,T.bmp,Normalself,immoral,other,No,,k,0,0
11,22,right,male,,189,凡我,S.bmp,Goodother,normal,self,No,k,k,1,1031
11,22,right,male,,190,好我,Tra.bmp,Goodself,moral,self,Yes,m,m,1,1083
11,22,right,male,,191,坏我,C.bmp,Badother,immoral,self,No,,k,0,0
11,22,right,male,,192,好人,D.bmp,Normalother,moral,other,No,k,k,1,1069
11,22,right,male,,193,好我,Tra.bmp,Goodself,moral,self,Yes,m,m,1,1050
11,22,right,male,,194,凡我,P.bmp,Badself,normal,self,No,k,k,1,872
11,22,right,male,,195,坏人,D.bmp,Normalother,immoral,other,No,m,k,0,922
11,22,right,male,,196,坏人,C.bmp,Badother,immoral,other,Yes,m,m,1,829
11,22,right,male,,197,坏人,C.bmp,Badother,immoral,other,Yes,m,m,1,885
11,22,right,male,,198,好人,S.bmp,Goodother,moral,other,Yes,k,m,0,881
11,22,right,male,,199,凡我,T.bmp,Normalself,normal,self,Yes,m,m,1,998
11,22,right,male,,200,好人,P.bmp,Badself,moral,other,No,,k,0,0
11,22,right,male,,201,凡我,Tra.bmp,Goodself,normal,self,No,m,k,0,982
11,22,right,male,,202,坏我,P.bmp,Badself,immoral,self,Yes,m,m,1,884
11,22,right,male,,203,凡我,T.bmp,Normalself,normal,self,Yes,,m,0,0
11,22,right,male,,204,凡人,S.bmp,Goodother,normal,other,No,k,k,1,880
11,22,right,male,,205,坏我,T.bmp,Normalself,immoral,self,No,m,k,0,1009
11,22,right,male,,206,坏我,D.bmp,Normalother,immoral,self,No,,k,0,0
11,22,right,male,,207,凡人,Tra.bmp,Goodself,normal,other,No,k,k,1,1073
11,22,right,male,,208,凡人,D.bmp,Normalother,normal,other,Yes,k,m,0,555
11,22,right,male,,209,好我,Tra.bmp,Goodself,moral,self,Yes,m,m,1,667
11,22,right,male,,210,坏我,P.bmp,Badself,immoral,self,Yes,m,m,1,709
11,22,right,male,,211,凡我,T.bmp,Normalself,normal,self,Yes,m,m,1,695
11,22,right,male,,212,坏人,Tra.bmp,Goodself,immoral,other,No,k,k,1,821
11,22,right,male,,213,凡我,C.bmp,Badother,normal,self,No,,k,0,0
11,22,right,male,,214,好人,T.bmp,Normalself,moral,other,No,k,k,1,902
11,22,right,male,,215,好我,Tra.bmp,Goodself,moral,self,Yes,m,m,1,784
11,22,right,male,,216,凡人,T.bmp,Normalself,normal,other,No,k,k,1,910
11,22,right,male,,217,坏人,P.bmp,Badself,immoral,other,No,k,k,1,984
11,22,right,male,,218,好我,P.bmp,Badself,moral,self,No,m,k,0,874
11,22,right,male,,219,坏人,C.bmp,Badother,immoral,other,Yes,k,m,0,1057
11,22,right,male,,220,好人,S.bmp,Goodother,moral,other,Yes,m,m,1,725
11,22,right,male,,221,凡我,T.bmp,Normalself,normal,self,Yes,,m,0,0
11,22,right,male,,222,好我,C.bmp,Badother,moral,self,No,k,k,1,889
11,22,right,male,,223,好我,D.bmp,Normalother,moral,self,No,k,k,1,954
11,22,right,male,,224,好人,S.bmp,Goodother,moral,other,Yes,m,m,1,1064
11,22,right,male,,225,凡人,P.bmp,Badself,normal,other,No,k,k,1,887
11,22,right,male,,226,坏我,P.bmp,Badself,immoral,self,Yes,k,m,0,897
11,22,right,male,,227,好人,C.bmp,Badother,moral,other,No,k,k,1,907
11,22,right,male,,228,坏我,Tra.bmp,Goodself,immoral,self,No,,k,0,0
11,22,right,male,,229,凡我,D.bmp,Normalother,normal,self,No,,k,0,0
11,22,right,male,,230,凡人,C.bmp,Badother,normal,other,No,k,k,1,951
11,22,right,male,,231,凡人,D.bmp,Normalother,normal,other,Yes,k,m,0,1080
11,22,right,male,,232,坏我,S.bmp,Goodother,immoral,self,No,,k,0,0
11,22,right,male,,233,好我,T.bmp,Normalself,moral,self,No,,k,0,0
11,22,right,male,,234,凡我,T.bmp,Normalself,normal,self,Yes,k,m,0,982
11,22,right,male,,235,坏人,C.bmp,Badother,immoral,other,Yes,m,m,1,660
11,22,right,male,,236,好人,S.bmp,Goodother,moral,other,Yes,m,m,1,979
11,22,right,male,,237,好我,Tra.bmp,Goodself,moral,self,Yes,m,m,1,785
11,22,right,male,,238,好人,S.bmp,Goodother,moral,other,Yes,k,m,0,1049
11,22,right,male,,239,好我,S.bmp,Goodother,moral,self,No,m,k,0,973
11,22,right,male,,240,好人,Tra.bmp,Goodself,moral,other,No,k,k,1,925
11,22,right,male,,241,坏我,P.bmp,Badself,immoral,self,Yes,k,m,0,875
11,22,right,male,,242,凡人,D.bmp,Normalother,normal,other,Yes,,m,0,0
11,22,right,male,,243,坏我,T.bmp,Normalself,immoral,self,No,,k,0,0
11,22,right,male,,244,坏人,C.bmp,Badother,immoral,other,Yes,,m,0,0
11,22,right,male,,245,好人,P.bmp,Badself,moral,other,No,m,k,0,828
11,22,right,male,,246,好人,T.bmp,Normalself,moral,other,No,,k,0,0
11,22,right,male,,247,坏我,P.bmp,Badself,immoral,self,Yes,m,m,1,942
11,22,right,male,,248,坏人,C.bmp,Badother,immoral,other,Yes,m,m,1,1053
11,22,right,male,,249,坏我,P.bmp,Badself,immoral,self,Yes,m,m,1,1001
11,22,right,male,,250,坏我,C.bmp,Badother,immoral,self,No,k,k,1,1019
11,22,right,male,,251,凡人,S.bmp,Goodother,normal,other,No,,k,0,0
11,22,right,male,,252,好人,S.bmp,Goodother,moral,other,Yes,k,m,0,1071
11,22,right,male,,253,好人,C.bmp,Badother,moral,other,No,m,k,0,905
11,22,right,male,,254,坏人,T.bmp,Normalself,immoral,other,No,,k,0,0
11,22,right,male,,255,好我,C.bmp,Badother,moral,self,No,k,k,1,930
11,22,right,male,,256,好我,T.bmp,Normalself,moral,self,No,k,k,1,914
11,22,right,male,,257,凡人,D.bmp,Normalother,normal,other,Yes,m,m,1,838
11,22,right,male,,258,凡我,T.bmp,Normalself,normal,self,Yes,m,m,1,606
11,22,right,male,,259,好我,Tra.bmp,Goodself,moral,self,Yes,m,m,1,816
11,22,right,male,,260,好我,Tra.bmp,Goodself,moral,self,Yes,m,m,1,636
11,22,right,male,,261,坏人,C.bmp,Badother,immoral,other,Yes,m,m,1,822
11,22,right,male,,262,坏人,D.bmp,Normalother,immoral,other,No,k,k,1,845
11,22,right,male,,263,凡我,T.bmp,Normalself,normal,self,Yes,m,m,1,1037
11,22,right,male,,264,坏我,P.bmp,Badself,immoral,self,Yes,m,m,1,871
11,22,right,male,,265,好人,S.bmp,Goodother,moral,other,Yes,,m,0,0
11,22,right,male,,266,坏人,C.bmp,Badother,immoral,other,Yes,m,m,1,897
11,22,right,male,,267,凡人,P.bmp,Badself,normal,other,No,k,k,1,929
11,22,right,male,,268,凡我,S.bmp,Goodother,normal,self,No,m,k,0,1007
11,22,right,male,,269,凡人,D.bmp,Normalother,normal,other,Yes,m,m,1,795
11,22,right,male,,270,好人,S.bmp,Goodother,moral,other,Yes,m,m,1,989
11,22,right,male,,271,凡我,T.bmp,Normalself,normal,self,Yes,k,m,0,1059
11,22,right,male,,272,好我,S.bmp,Goodother,moral,self,No,m,k,0,875
11,22,right,male,,273,凡人,D.bmp,Normalother,normal,other,Yes,,m,0,0
11,22,right,male,,274,好人,S.bmp,Goodother,moral,other,Yes,m,m,1,820
11,22,right,male,,275,坏人,C.bmp,Badother,immoral,other,Yes,k,m,0,728
11,22,right,male,,276,凡我,Tra.bmp,Goodself,normal,self,No,k,k,1,1034
11,22,right,male,,277,坏我,S.bmp,Goodother,immoral,self,No,,k,0,0
11,22,right,male,,278,坏我,P.bmp,Badself,immoral,self,Yes,m,m,1,934
11,22,right,male,,279,好我,D.bmp,Normalother,moral,self,No,,k,0,0
11,22,right,male,,280,凡人,T.bmp,Normalself,normal,other,No,m,k,0,949
11,22,right,male,,281,凡人,C.bmp,Badother,normal,other,No,k,k,1,1053
11,22,right,male,,282,凡我,T.bmp,Normalself,normal,self,Yes,,m,0,0
11,22,right,male,,283,好人,D.bmp,Normalother,moral,other,No,k,k,1,941
11,22,right,male,,284,坏我,Tra.bmp,Goodself,immoral,self,No,,k,0,0
11,22,right,male,,285,坏人,S.bmp,Goodother,immoral,other,No,m,k,0,775
11,22,right,male,,286,凡我,P.bmp,Badself,normal,self,No,,k,0,0
11,22,right,male,,287,凡我,T.bmp,Normalself,normal,self,Yes,m,m,1,712
11,22,right,male,,288,好人,S.bmp,Goodother,moral,other,Yes,m,m,1,782
11,22,right,male,,289,好我,Tra.bmp,Goodself,moral,self,Yes,m,m,1,768
11,22,right,male,,290,凡人,D.bmp,Normalother,normal,other,Yes,m,m,1,874
11,22,right,male,,291,坏人,Tra.bmp,Goodself,immoral,other,No,k,k,1,994
11,22,right,male,,292,坏我,D.bmp,Normalother,immoral,self,No,k,k,1,1091
11,22,right,male,,293,坏人,P.bmp,Badself,immoral,other,No,m,k,0,840
11,22,right,male,,294,好我,P.bmp,Badself,moral,self,No,m,k,0,818
11,22,right,male,,295,好我,Tra.bmp,Goodself,moral,self,Yes,m,m,1,812
11,22,right,male,,296,好我,Tra.bmp,Goodself,moral,self,Yes,m,m,1,776
11,22,right,male,,297,凡我,C.bmp,Badother,normal,self,No,k,k,1,898
11,22,right,male,,298,好人,Tra.bmp,Goodself,moral,other,No,k,k,1,1003
11,22,right,male,,299,凡人,Tra.bmp,Goodself,normal,other,No,k,k,1,823
11,22,right,male,,300,凡我,D.bmp,Normalother,normal,self,No,m,k,0,867
11,22,right,male,,301,凡我,C.bmp,Badother,normal,self,No,k,k,1,812
11,22,right,male,,302,好我,C.bmp,Badother,moral,self,No,k,k,1,774
11,22,right,male,,303,坏我,P.bmp,Badself,immoral,self,Yes,m,m,1,914
11,22,right,male,,304,好人,D.bmp,Normalother,moral,other,No,k,k,1,1010
11,22,right,male,,305,凡我,S.bmp,Goodother,normal,self,No,k,k,1,816
11,22,right,male,,306,凡我,D.bmp,Normalother,normal,self,No,k,k,1,1018
11,22,right,male,,307,凡我,T.bmp,Normalself,normal,self,Yes,m,m,1,947
11,22,right,male,,308,坏我,C.bmp,Badother,immoral,self,No,k,k,1,917
11,22,right,male,,309,好我,Tra.bmp,Goodself,moral,self,Yes,m,m,1,851
11,22,right,male,,310,好人,S.bmp,Goodother,moral,other,Yes,m,m,1,887
11,22,right,male,,311,好人,C.bmp,Badother,moral,other,No,k,k,1,1031
11,22,right,male,,312,凡人,C.bmp,Badother,normal,other,No,k,k,1,1081
11,22,right,male,,313,坏人,C.bmp,Badother,immoral,other,Yes,m,m,1,956
11,22,right,male,,314,坏我,T.bmp,Normalself,immoral,self,No,,k,0,0
11,22,right,male,,315,坏我,P.bmp,Badself,immoral,self,Yes,m,m,1,988
11,22,right,male,,316,好人,Tra.bmp,Goodself,moral,other,No,,k,0,0
11,22,right,male,,317,好我,S.bmp,Goodother,moral,self,No,k,k,1,954
11,22,right,male,,318,坏我,S.bmp,Goodother,immoral,self,No,,k,0,0
11,22,right,male,,319,好人,P.bmp,Badself,moral,other,No,,k,0,0
11,22,right,male,,320,凡人,Tra.bmp,Goodself,normal,other,No,,k,0,0
11,22,right,male,,321,好我,Tra.bmp,Goodself,moral,self,Yes,m,m,1,807
11,22,right,male,,322,好我,D.bmp,Normalother,moral,self,No,k,k,1,1005
11,22,right,male,,323,坏我,P.bmp,Badself,immoral,self,Yes,m,m,1,889
11,22,right,male,,324,好人,S.bmp,Goodother,moral,other,Yes,m,m,1,1023
11,22,right,male,,325,坏人,C.bmp,Badother,immoral,other,Yes,m,m,1,745
11,22,right,male,,326,凡人,D.bmp,Normalother,normal,other,Yes,m,m,1,1064
11,22,right,male,,327,坏人,Tra.bmp,Goodself,immoral,other,No,k,k,1,993
11,22,right,male,,328,坏人,S.bmp,Goodother,immoral,other,No,k,k,1,903
11,22,right,male,,329,凡人,D.bmp,Normalother,normal,other,Yes,m,m,1,809
11,22,right,male,,330,坏我,Tra.bmp,Goodself,immoral,self,No,k,k,1,1015
11,22,right,male,,331,凡我,Tra.bmp,Goodself,normal,self,No,k,k,1,889
11,22,right,male,,332,凡人,D.bmp,Normalother,normal,other,Yes,m,m,1,977
11,22,right,male,,333,凡我,T.bmp,Normalself,normal,self,Yes,m,m,1,926
11,22,right,male,,334,凡我,T.bmp,Normalself,normal,self,Yes,m,m,1,764
11,22,right,male,,335,坏人,C.bmp,Badother,immoral,other,Yes,m,m,1,932
11,22,right,male,,336,好我,P.bmp,Badself,moral,self,No,m,k,0,810
11,22,right,male,,337,凡我,T.bmp,Normalself,normal,self,Yes,m,m,1,948
11,22,right,male,,338,坏人,C.bmp,Badother,immoral,other,Yes,m,m,1,944
11,22,right,male,,339,坏人,D.bmp,Normalother,immoral,other,No,,k,0,0
11,22,right,male,,340,坏我,D.bmp,Normalother,immoral,self,No,k,k,1,811
11,22,right,male,,341,好我,Tra.bmp,Goodself,moral,self,Yes,m,m,1,727
11,22,right,male,,342,坏我,P.bmp,Badself,immoral,self,Yes,m,m,1,1009
11,22,right,male,,343,凡人,P.bmp,Badself,normal,other,No,k,k,1,929
11,22,right,male,,344,坏人,T.bmp,Normalself,immoral,other,No,,k,0,0
11,22,right,male,,345,坏人,C.bmp,Badother,immoral,other,Yes,m,m,1,984
11,22,right,male,,346,好人,T.bmp,Normalself,moral,other,No,,k,0,0
11,22,right,male,,347,坏我,P.bmp,Badself,immoral,self,Yes,k,m,0,956
11,22,right,male,,348,凡我,T.bmp,Normalself,normal,self,Yes,m,m,1,830
11,22,right,male,,349,好我,T.bmp,Normalself,moral,self,No,k,k,1,850
11,22,right,male,,350,好我,Tra.bmp,Goodself,moral,self,Yes,m,m,1,794
11,22,right,male,,351,凡我,P.bmp,Badself,normal,self,No,k,k,1,725
11,22,right,male,,352,凡人,S.bmp,Goodother,normal,other,No,k,k,1,979
11,22,right,male,,353,坏人,P.bmp,Badself,immoral,other,No,k,k,1,1075
11,22,right,male,,354,好人,S.bmp,Goodother,moral,other,Yes,m,m,1,863
11,22,right,male,,355,好人,S.bmp,Goodother,moral,other,Yes,m,m,1,777
11,22,right,male,,356,凡人,T.bmp,Normalself,normal,other,No,m,k,0,1074
11,22,right,male,,357,好我,Tra.bmp,Goodself,moral,self,Yes,m,m,1,1080
11,22,right,male,,358,好人,S.bmp,Goodother,moral,other,Yes,m,m,1,925
11,22,right,male,,359,凡人,D.bmp,Normalother,normal,other,Yes,,m,0,0
11,22,right,male,,360,凡人,D.bmp,Normalother,normal,other,Yes,m,m,1,713
11,22,right,male,1,1,坏人,D.bmp,Normalother,,,No,,k,0,0
11,22,right,male,1,2,坏人,C.bmp,Badother,,,Yes,,m,0,0
11,22,right,male,1,3,好人,D.bmp,Normalother,,,No,k,k,1,1095
11,22,right,male,1,4,坏我,T.bmp,Normalself,,,No,m,k,0,949
11,22,right,male,1,5,好人,P.bmp,Badself,,,No,,k,0,0
11,22,right,male,1,6,凡人,D.bmp,Normalother,,,Yes,m,m,1,913
11,22,right,male,1,7,好我,T.bmp,Normalself,,,No,k,k,1,866
11,22,right,male,1,8,好人,Tra.bmp,Goodself,,,No,m,k,0,756
11,22,right,male,1,9,凡我,T.bmp,Normalself,,,Yes,m,m,1,894
11,22,right,male,1,10,好我,D.bmp,Normalother,,,No,,k,0,0
11,22,right,male,1,11,好人,C.bmp,Badother,,,No,,k,0,0
11,22,right,male,1,12,坏人,P.bmp,Badself,,,No,k,k,1,934
11,22,right,male,1,13,凡我,T.bmp,Normalself,,,Yes,k,m,0,735
11,22,right,male,1,14,坏我,Tra.bmp,Goodself,,,No,m,k,0,683
11,22,right,male,1,15,好人,S.bmp,Goodother,,,Yes,m,m,1,842
11,22,right,male,1,16,坏人,T.bmp,Normalself,,,No,k,k,1,1060
11,22,right,male,1,17,好人,S.bmp,Goodother,,,Yes,,m,0,0
11,22,right,male,1,18,好我,Tra.bmp,Goodself,,,Yes,m,m,1,718
11,22,right,male,1,19,坏我,P.bmp,Badself,,,Yes,m,m,1,739
11,22,right,male,1,20,坏我,C.bmp,Badother,,,No,m,k,0,1077
11,22,right,male,1,21,凡我,T.bmp,Normalself,,,Yes,,m,0,0
11,22,right,male,1,22,凡我,S.bmp,Goodother,,,No,m,k,0,939
11,22,right,male,1,23,凡我,D.bmp,Normalother,,,No,m,k,0,1053
11,22,right,male,1,24,坏我,P.bmp,Badself,,,Yes,m,m,1,879
11,22,right,male,1,25,凡我,Tra.bmp,Goodself,,,No,k,k,1,1019
11,22,right,male,1,26,凡人,D.bmp,Normalother,,,Yes,k,m,0,1004
11,22,right,male,1,27,好我,S.bmp,Goodother,,,No,m,k,0,924
11,22,right,male,1,28,坏人,C.bmp,Badother,,,Yes,m,m,1,1074
11,22,right,male,1,29,好我,P.bmp,Badself,,,No,m,k,0,1044
11,22,right,male,1,30,好我,Tra.bmp,Goodself,,,Yes,m,m,1,904
11,22,right,male,1,31,坏人,Tra.bmp,Goodself,,,No,k,k,1,986
11,22,right,male,1,32,坏我,P.bmp,Badself,,,Yes,k,m,0,1035
11,22,right,male,1,33,坏我,S.bmp,Goodother,,,No,k,k,1,903
11,22,right,male,1,34,好我,Tra.bmp,Goodself,,,Yes,m,m,1,833
11,22,right,male,1,35,好人,S.bmp,Goodother,,,Yes,m,m,1,901
11,22,right,male,1,36,坏人,S.bmp,Goodother,,,No,k,k,1,1029
11,22,right,male,1,37,凡我,T.bmp,Normalself,,,Yes,m,m,1,1013
11,22,right,male,1,38,凡人,T.bmp,Normalself,,,No,k,k,1,977
11,22,right,male,1,39,坏人,C.bmp,Badother,,,Yes,m,m,1,938
11,22,right,male,1,40,坏我,P.bmp,Badself,,,Yes,m,m,1,948
11,22,right,male,1,41,坏人,C.bmp,Badother,,,Yes,m,m,1,1048
11,22,right,male,1,42,凡人,D.bmp,Normalother,,,Yes,m,m,1,920
11,22,right,male,1,43,好我,C.bmp,Badother,,,No,m,k,0,939
11,22,right,male,1,44,好我,Tra.bmp,Goodself,,,Yes,m,m,1,1010
11,22,right,male,1,45,坏我,P.bmp,Badself,,,Yes,m,m,1,938
11,22,right,male,1,46,凡我,T.bmp,Normalself,,,Yes,k,m,0,1060
11,22,right,male,1,47,凡我,C.bmp,Badother,,,No,k,k,1,916
11,22,right,male,1,48,好人,S.bmp,Goodother,,,Yes,m,m,1,930
11,22,right,male,1,49,好我,Tra.bmp,Goodself,,,Yes,m,m,1,976
11,22,right,male,1,50,凡人,D.bmp,Normalother,,,Yes,k,m,0,1042
11,22,right,male,1,51,坏我,D.bmp,Normalother,,,No,k,k,1,985
11,22,right,male,1,52,凡人,D.bmp,Normalother,,,Yes,k,m,0,1001
11,22,right,male,1,53,凡人,S.bmp,Goodother,,,No,k,k,1,827
11,22,right,male,1,54,凡人,P.bmp,Badself,,,No,k,k,1,849
11,22,right,male,1,55,凡人,Tra.bmp,Goodself,,,No,k,k,1,765
11,22,right,male,1,56,好人,S.bmp,Goodother,,,Yes,m,m,1,850
11,22,right,male,1,57,凡我,P.bmp,Badself,,,No,k,k,1,1034
11,22,right,male,1,58,凡人,C.bmp,Badother,,,No,k,k,1,940
11,22,right,male,1,59,坏人,C.bmp,Badother,,,Yes,m,m,1,854
11,22,right,male,1,60,好人,T.bmp,Normalself,,,No,k,k,1,990
11,22,right,male,1,61,凡人,Tra.bmp,Goodself,,,No,k,k,1,1006
11,22,right,male,1,62,好我,Tra.bmp,Goodself,,,Yes,m,m,1,884
11,22,right,male,1,63,凡人,T.bmp,Normalself,,,No,m,k,0,1056
11,22,right,male,1,64,好我,D.bmp,Normalother,,,No,k,k,1,825
11,22,right,male,1,65,好人,S.bmp,Goodother,,,Yes,k,m,0,957
11,22,right,male,1,66,凡人,D.bmp,Normalother,,,Yes,k,m,0,893
11,22,right,male,1,67,凡我,T.bmp,Normalself,,,Yes,m,m,1,1025
11,22,right,male,1,68,坏我,T.bmp,Normalself,,,No,k,k,1,789
11,22,right,male,1,69,坏我,D.bmp,Normalother,,,No,,k,0,0
11,22,right,male,1,70,坏我,P.bmp,Badself,,,Yes,,m,0,0
11,22,right,male,1,71,好我,Tra.bmp,Goodself,,,Yes,m,m,1,720
11,22,right,male,1,72,凡我,T.bmp,Normalself,,,Yes,m,m,1,787
11,22,right,male,1,73,凡我,T.bmp,Normalself,,,Yes,m,m,1,875
11,22,right,male,1,74,好人,P.bmp,Badself,,,No,k,k,1,957
11,22,right,male,1,75,凡我,P.bmp,Badself,,,No,k,k,1,777
11,22,right,male,1,76,好我,P.bmp,Badself,,,No,k,k,1,866
11,22,right,male,1,77,好人,S.bmp,Goodother,,,Yes,m,m,1,842
11,22,right,male,1,78,坏人,Tra.bmp,Goodself,,,No,k,k,1,1032
11,22,right,male,1,79,好人,S.bmp,Goodother,,,Yes,m,m,1,964
11,22,right,male,1,80,好我,Tra.bmp,Goodself,,,Yes,m,m,1,868
11,22,right,male,1,81,坏我,P.bmp,Badself,,,Yes,k,m,0,865
11,22,right,male,1,82,凡人,P.bmp,Badself,,,No,k,k,1,763
11,22,right,male,1,83,凡人,D.bmp,Normalother,,,Yes,m,m,1,903
11,22,right,male,1,84,坏人,C.bmp,Badother,,,Yes,m,m,1,823
11,22,right,male,1,85,凡人,D.bmp,Normalother,,,Yes,m,m,1,1057
11,22,right,male,1,86,凡我,T.bmp,Normalself,,,Yes,m,m,1,945
11,22,right,male,1,87,好人,S.bmp,Goodother,,,Yes,m,m,1,928
11,22,right,male,1,88,凡我,Tra.bmp,Goodself,,,No,k,k,1,1054
11,22,right,male,1,89,坏我,P.bmp,Badself,,,Yes,m,m,1,864
11,22,right,male,1,90,凡我,T.bmp,Normalself,,,Yes,m,m,1,940
11,22,right,male,1,91,好我,S.bmp,Goodother,,,No,m,k,0,894
11,22,right,male,1,92,坏我,C.bmp,Badother,,,No,k,k,1,994
11,22,right,male,1,93,好我,C.bmp,Badother,,,No,k,k,1,923
11,22,right,male,1,94,坏人,D.bmp,Normalother,,,No,k,k,1,901
11,22,right,male,1,95,坏我,S.bmp,Goodother,,,No,,k,0,0
11,22,right,male,1,96,凡我,D.bmp,Normalother,,,No,,k,0,0
11,22,right,male,1,97,凡我,C.bmp,Badother,,,No,k,k,1,823
11,22,right,male,1,98,好人,T.bmp,Normalself,,,No,k,k,1,932
11,22,right,male,1,99,凡我,S.bmp,Goodother,,,No,k,k,1,973
11,22,right,male,1,100,坏人,C.bmp,Badother,,,Yes,m,m,1,991
11,22,right,male,1,101,坏人,P.bmp,Badself,,,No,k,k,1,1081
11,22,right,male,1,102,好我,T.bmp,Normalself,,,No,,k,0,0
11,22,right,male,1,103,好人,S.bmp,Goodother,,,Yes,m,m,1,381
11,22,right,male,1,104,坏我,P.bmp,Badself,,,Yes,k,m,0,999
11,22,right,male,1,105,好我,Tra.bmp,Goodself,,,Yes,m,m,1,787
11,22,right,male,1,106,好人,D.bmp,Normalother,,,No,m,k,0,813
11,22,right,male,1,107,凡人,C.bmp,Badother,,,No,k,k,1,810
11,22,right,male,1,108,坏人,C.bmp,Badother,,,Yes,m,m,1,762
11,22,right,male,1,109,坏人,C.bmp,Badother,,,Yes,m,m,1,806
11,22,right,male,1,110,坏我,Tra.bmp,Goodself,,,No,k,k,1,1044
11,22,right,male,1,111,坏人,S.bmp,Goodother,,,No,k,k,1,800
11,22,right,male,1,112,好人,Tra.bmp,Goodself,,,No,m,k,0,857
11,22,right,male,1,113,好人,C.bmp,Badother,,,No,k,k,1,759
11,22,right,male,1,114,好我,Tra.bmp,Goodself,,,Yes,m,m,1,751
11,22,right,male,1,115,坏人,T.bmp,Normalself,,,No,k,k,1,889
11,22,right,male,1,116,凡人,D.bmp,Normalother,,,Yes,m,m,1,993
11,22,right,male,1,117,坏我,P.bmp,Badself,,,Yes,m,m,1,929
11,22,right,male,1,118,凡人,S.bmp,Goodother,,,No,k,k,1,780
11,22,right,male,1,119,坏人,C.bmp,Badother,,,Yes,m,m,1,812
11,22,right,male,1,120,凡人,D.bmp,Normalother,,,Yes,m,m,1,930
11,22,right,male,2,1,好我,T.bmp,Normalself,,,No,k,k,1,898
11,22,right,male,2,2,凡人,D.bmp,Normalother,,,Yes,m,m,1,998
11,22,right,male,2,3,好我,Tra.bmp,Goodself,,,Yes,,m,0,0
11,22,right,male,2,4,坏人,C.bmp,Badother,,,Yes,m,m,1,702
11,22,right,male,2,5,凡我,T.bmp,Normalself,,,Yes,m,m,1,957
11,22,right,male,2,6,坏我,D.bmp,Normalother,,,No,k,k,1,799
11,22,right,male,2,7,坏我,C.bmp,Badother,,,No,k,k,1,1087
11,22,right,male,2,8,凡我,T.bmp,Normalself,,,Yes,k,m,0,815
11,22,right,male,2,9,坏我,P.bmp,Badself,,,Yes,m,m,1,975
11,22,right,male,2,10,凡我,S.bmp,Goodother,,,No,k,k,1,903
11,22,right,male,2,11,好人,S.bmp,Goodother,,,Yes,m,m,1,893
11,22,right,male,2,12,凡人,Tra.bmp,Goodself,,,No,k,k,1,944
11,22,right,male,2,13,凡人,P.bmp,Badself,,,No,k,k,1,874
11,22,right,male,2,14,好我,C.bmp,Badother,,,No,k,k,1,928
11,22,right,male,2,15,坏人,Tra.bmp,Goodself,,,No,,k,0,0
11,22,right,male,2,16,好人,P.bmp,Badself,,,No,m,k,0,988
11,22,right,male,2,17,凡我,T.bmp,Normalself,,,Yes,m,m,1,879
11,22,right,male,2,18,好人,S.bmp,Goodother,,,Yes,m,m,1,860
11,22,right,male,2,19,凡人,D.bmp,Normalother,,,Yes,k,m,0,930
11,22,right,male,2,20,好我,P.bmp,Badself,,,No,m,k,0,884
11,22,right,male,2,21,凡人,S.bmp,Goodother,,,No,k,k,1,954
11,22,right,male,2,22,好我,S.bmp,Goodother,,,No,k,k,1,946
11,22,right,male,2,23,凡我,T.bmp,Normalself,,,Yes,m,m,1,836
11,22,right,male,2,24,凡我,D.bmp,Normalother,,,No,k,k,1,915
11,22,right,male,2,25,坏我,P.bmp,Badself,,,Yes,k,m,0,1025
11,22,right,male,2,26,坏我,T.bmp,Normalself,,,No,k,k,1,977
11,22,right,male,2,27,凡我,Tra.bmp,Goodself,,,No,k,k,1,979
11,22,right,male,2,28,坏人,C.bmp,Badother,,,Yes,m,m,1,845
11,22,right,male,2,29,坏我,S.bmp,Goodother,,,No,k,k,1,1039
11,22,right,male,2,30,凡人,D.bmp,Normalother,,,Yes,m,m,1,855
11,22,right,male,2,31,凡我,T.bmp,Normalself,,,Yes,m,m,1,738
11,22,right,male,2,32,坏人,C.bmp,Badother,,,Yes,m,m,1,1092
11,22,right,male,2,33,好人,D.bmp,Normalother,,,No,k,k,1,908
11,22,right,male,2,34,好人,T.bmp,Normalself,,,No,,k,0,0
11,22,right,male,2,35,凡我,P.bmp,Badself,,,No,k,k,1,930
11,22,right,male,2,36,坏人,D.bmp,Normalother,,,No,m,k,0,993
11,22,right,male,2,37,坏我,P.bmp,Badself,,,Yes,,m,0,0
11,22,right,male,2,38,好人,S.bmp,Goodother,,,Yes,m,m,1,733
11,22,right,male,2,39,凡人,D.bmp,Normalother,,,Yes,k,m,0,873
11,22,right,male,2,40,好我,D.bmp,Normalother,,,No,k,k,1,889
11,22,right,male,2,41,坏人,S.bmp,Goodother,,,No,m,k,0,985
11,22,right,male,2,42,坏我,P.bmp,Badself,,,Yes,m,m,1,964
11,22,right,male,2,43,坏我,P.bmp,Badself,,,Yes,m,m,1,760
11,22,right,male,2,44,好人,Tra.bmp,Goodself,,,No,m,k,0,773
11,22,right,male,2,45,凡人,D.bmp,Normalother,,,Yes,m,m,1,1061
11,22,right,male,2,46,好我,Tra.bmp,Goodself,,,Yes,m,m,1,919
11,22,right,male,2,47,好我,Tra.bmp,Goodself,,,Yes,m,m,1,773
11,22,right,male,2,48,好我,Tra.bmp,Goodself,,,Yes,m,m,1,770
11,22,right,male,2,49,好我,Tra.bmp,Goodself,,,Yes,,m,0,0
11,22,right,male,2,50,好人,S.bmp,Goodother,,,Yes,m,m,1,796
11,22,right,male,2,51,凡人,T.bmp,Normalself,,,No,m,k,0,900
11,22,right,male,2,52,坏人,T.bmp,Normalself,,,No,k,k,1,988
11,22,right,male,2,53,坏我,Tra.bmp,Goodself,,,No,m,k,0,974
11,22,right,male,2,54,好人,S.bmp,Goodother,,,Yes,m,m,1,758
11,22,right,male,2,55,坏人,C.bmp,Badother,,,Yes,m,m,1,693
11,22,right,male,2,56,凡人,C.bmp,Badother,,,No,m,k,0,743
11,22,right,male,2,57,好人,C.bmp,Badother,,,No,m,k,0,593
11,22,right,male,2,58,凡我,C.bmp,Badother,,,No,k,k,1,827
11,22,right,male,2,59,坏人,C.bmp,Badother,,,Yes,k,m,0,775
11,22,right,male,2,60,坏人,P.bmp,Badself,,,No,m,k,0,755
11,22,right,male,2,61,凡人,D.bmp,Normalother,,,Yes,m,m,1,450
11,22,right,male,2,62,坏我,P.bmp,Badself,,,Yes,m,m,1,766
11,22,right,male,2,63,好我,D.bmp,Normalother,,,No,k,k,1,854
11,22,right,male,2,64,好人,S.bmp,Goodother,,,Yes,m,m,1,692
11,22,right,male,2,65,坏我,D.bmp,Normalother,,,No,k,k,1,928
11,22,right,male,2,66,坏我,C.bmp,Badother,,,No,k,k,1,752
11,22,right,male,2,67,坏人,C.bmp,Badother,,,Yes,m,m,1,786
11,22,right,male,2,68,好我,T.bmp,Normalself,,,No,k,k,1,941
11,22,right,male,2,69,凡我,T.bmp,Normalself,,,Yes,m,m,1,703
11,22,right,male,2,70,好人,S.bmp,Goodother,,,Yes,m,m,1,827
11,22,right,male,2,71,好我,Tra.bmp,Goodself,,,Yes,m,m,1,971
11,22,right,male,2,72,坏人,T.bmp,Normalself,,,No,k,k,1,897
11,22,right,male,2,73,好人,S.bmp,Goodother,,,Yes,m,m,1,745
11,22,right,male,2,74,坏我,S.bmp,Goodother,,,No,k,k,1,801
11,22,right,male,2,75,凡我,D.bmp,Normalother,,,No,m,k,0,1021
11,22,right,male,2,76,好我,C.bmp,Badother,,,No,k,k,1,899
11,22,right,male,2,77,凡我,T.bmp,Normalself,,,Yes,m,m,1,925
11,22,right,male,2,78,坏我,Tra.bmp,Goodself,,,No,k,k,1,765
11,22,right,male,2,79,凡人,D.bmp,Normalother,,,Yes,m,m,1,907
11,22,right,male,2,80,坏人,C.bmp,Badother,,,Yes,m,m,1,756
11,22,right,male,2,81,坏我,P.bmp,Badself,,,Yes,m,m,1,1082
11,22,right,male,2,82,好我,P.bmp,Badself,,,No,m,k,0,1062
11,22,right,male,2,83,坏我,P.bmp,Badself,,,Yes,m,m,1,922
11,22,right,male,2,84,坏人,C.bmp,Badother,,,Yes,m,m,1,1070
11,22,right,male,2,85,坏我,T.bmp,Normalself,,,No,,k,0,0
11,22,right,male,2,86,坏人,S.bmp,Goodother,,,No,m,k,0,1083
11,22,right,male,2,87,凡人,C.bmp,Badother,,,No,,k,0,0
11,22,right,male,2,88,凡人,D.bmp,Normalother,,,Yes,m,m,1,1061
11,22,right,male,2,89,坏人,Tra.bmp,Goodself,,,No,k,k,1,1015
11,22,right,male,2,90,好我,Tra.bmp,Goodself,,,Yes,m,m,1,899
11,22,right,male,2,91,凡我,P.bmp,Badself,,,No,k,k,1,1012
11,22,right,male,2,92,好人,D.bmp,Normalother,,,No,m,k,0,990
11,22,right,male,2,93,好人,Tra.bmp,Goodself,,,No,,k,0,0
11,22,right,male,2,94,凡人,P.bmp,Badself,,,No,k,k,1,876
11,22,right,male,2,95,好我,S.bmp,Goodother,,,No,k,k,1,904
11,22,right,male,2,96,凡我,T.bmp,Normalself,,,Yes,m,m,1,1044
11,22,right,male,2,97,坏我,P.bmp,Badself,,,Yes,,m,0,0
11,22,right,male,2,98,好人,S.bmp,Goodother,,,Yes,,m,0,0
11,22,right,male,2,99,好人,T.bmp,Normalself,,,No,k,k,1,891
11,22,right,male,2,100,凡人,Tra.bmp,Goodself,,,No,m,k,0,724
11,22,right,male,2,101,凡我,C.bmp,Badother,,,No,k,k,1,792
11,22,right,male,2,102,好我,Tra.bmp,Goodself,,,Yes,m,m,1,800
11,22,right,male,2,103,好人,C.bmp,Badother,,,No,k,k,1,794
11,22,right,male,2,104,好我,Tra.bmp,Goodself,,,Yes,k,m,0,826
11,22,right,male,2,105,坏人,C.bmp,Badother,,,Yes,m,m,1,797
11,22,right,male,2,106,凡我,T.bmp,Normalself,,,Yes,,m,0,0
11,22,right,male,2,107,坏人,D.bmp,Normalother,,,No,m,k,0,599
11,22,right,male,2,108,好我,Tra.bmp,Goodself,,,Yes,m,m,1,963
11,22,right,male,2,109,凡人,T.bmp,Normalself,,,No,k,k,1,1027
11,22,right,male,2,110,坏我,P.bmp,Badself,,,Yes,m,m,1,893
11,22,right,male,2,111,凡人,D.bmp,Normalother,,,Yes,,m,0,0
11,22,right,male,2,112,好人,S.bmp,Goodother,,,Yes,,m,0,0
11,22,right,male,2,113,好人,P.bmp,Badself,,,No,k,k,1,744
11,22,right,male,2,114,凡人,D.bmp,Normalother,,,Yes,m,m,1,912
11,22,right,male,2,115,凡我,S.bmp,Goodother,,,No,k,k,1,890
11,22,right,male,2,116,坏人,P.bmp,Badself,,,No,m,k,0,1029
11,22,right,male,2,117,坏人,C.bmp,Badother,,,Yes,m,m,1,803
11,22,right,male,2,118,凡我,T.bmp,Normalself,,,Yes,m,m,1,865
11,22,right,male,2,119,凡我,Tra.bmp,Goodself,,,No,k,k,1,983
11,22,right,male,2,120,凡人,S.bmp,Goodother,,,No,m,k,0,1041
11,22,right,male,3,1,好人,S.bmp,Goodother,,,Yes,,m,0,0
11,22,right,male,3,2,凡人,D.bmp,Normalother,,,Yes,m,m,1,1020
11,22,right,male,3,3,坏人,S.bmp,Goodother,,,No,m,k,0,1037
11,22,right,male,3,4,凡人,S.bmp,Goodother,,,No,k,k,1,839
11,22,right,male,3,5,凡人,D.bmp,Normalother,,,Yes,k,m,0,1063
11,22,right,male,3,6,好我,D.bmp,Normalother,,,No,k,k,1,885
11,22,right,male,3,7,好我,Tra.bmp,Goodself,,,Yes,k,m,0,1087
11,22,right,male,3,8,坏我,P.bmp,Badself,,,Yes,m,m,1,879
11,22,right,male,3,9,坏人,D.bmp,Normalother,,,No,k,k,1,1056
11,22,right,male,3,10,凡人,P.bmp,Badself,,,No,,k,0,0
11,22,right,male,3,11,好人,D.bmp,Normalother,,,No,k,k,1,926
11,22,right,male,3,12,好人,S.bmp,Goodother,,,Yes,m,m,1,1034
11,22,right,male,3,13,凡我,C.bmp,Badother,,,No,k,k,1,904
11,22,right,male,3,14,坏人,C.bmp,Badother,,,Yes,m,m,1,848
11,22,right,male,3,15,凡我,T.bmp,Normalself,,,Yes,m,m,1,881
11,22,right,male,3,16,坏人,Tra.bmp,Goodself,,,No,,k,0,0
11,22,right,male,3,17,好人,S.bmp,Goodother,,,Yes,m,m,1,795
11,22,right,male,3,18,坏人,C.bmp,Badother,,,Yes,m,m,1,995
11,22,right,male,3,19,坏人,P.bmp,Badself,,,No,k,k,1,883
11,22,right,male,3,20,好人,P.bmp,Badself,,,No,k,k,1,852
11,22,right,male,3,21,好人,S.bmp,Goodother,,,Yes,m,m,1,1036
11,22,right,male,3,22,凡人,D.bmp,Normalother,,,Yes,m,m,1,980
11,22,right,male,3,23,凡我,T.bmp,Normalself,,,Yes,m,m,1,747
11,22,right,male,3,24,凡我,S.bmp,Goodother,,,No,k,k,1,817
11,22,right,male,3,25,凡人,C.bmp,Badother,,,No,k,k,1,927
11,22,right,male,3,26,坏人,C.bmp,Badother,,,Yes,k,m,0,998
11,22,right,male,3,27,好人,T.bmp,Normalself,,,No,k,k,1,916
11,22,right,male,3,28,坏我,C.bmp,Badother,,,No,k,k,1,810
11,22,right,male,3,29,凡人,Tra.bmp,Goodself,,,No,k,k,1,882
11,22,right,male,3,30,凡我,Tra.bmp,Goodself,,,No,k,k,1,858
11,22,right,male,3,31,好我,Tra.bmp,Goodself,,,Yes,m,m,1,892
11,22,right,male,3,32,坏我,S.bmp,Goodother,,,No,k,k,1,955
11,22,right,male,3,33,坏我,P.bmp,Badself,,,Yes,k,m,0,955
11,22,right,male,3,34,好我,Tra.bmp,Goodself,,,Yes,m,m,1,961
11,22,right,male,3,35,好我,Tra.bmp,Goodself,,,Yes,m,m,1,891
11,22,right,male,3,36,好我,Tra.bmp,Goodself,,,Yes,m,m,1,833
11,22,right,male,3,37,凡我,T.bmp,Normalself,,,Yes,k,m,0,1009
11,22,right,male,3,38,坏人,C.bmp,Badother,,,Yes,m,m,1,884
11,22,right,male,3,39,坏人,C.bmp,Badother,,,Yes,m,m,1,876
11,22,right,male,3,40,坏人,T.bmp,Normalself,,,No,k,k,1,1026
11,22,right,male,3,41,好我,P.bmp,Badself,,,No,m,k,0,820
11,22,right,male,3,42,坏我,P.bmp,Badself,,,Yes,m,m,1,860
11,22,right,male,3,43,凡我,P.bmp,Badself,,,No,k,k,1,816
11,22,right,male,3,44,好我,T.bmp,Normalself,,,No,k,k,1,1093
11,22,right,male,3,45,凡我,D.bmp,Normalother,,,No,k,k,1,1001
11,22,right,male,3,46,好人,Tra.bmp,Goodself,,,No,m,k,0,979
11,22,right,male,3,47,坏我,D.bmp,Normalother,,,No,k,k,1,877
11,22,right,male,3,48,凡人,T.bmp,Normalself,,,No,k,k,1,917
11,22,right,male,3,49,坏我,Tra.bmp,Goodself,,,No,k,k,1,1009
11,22,right,male,3,50,好我,C.bmp,Badother,,,No,m,k,0,1099
11,22,right,male,3,51,坏我,P.bmp,Badself,,,Yes,,m,0,0
11,22,right,male,3,52,凡我,T.bmp,Normalself,,,Yes,,m,0,0
11,22,right,male,3,53,好人,S.bmp,Goodother,,,Yes,m,m,1,937
11,22,right,male,3,54,凡人,D.bmp,Normalother,,,Yes,k,m,0,1011
11,22,right,male,3,55,凡人,D.bmp,Normalother,,,Yes,m,m,1,871
11,22,right,male,3,56,凡我,T.bmp,Normalself,,,Yes,m,m,1,812
11,22,right,male,3,57,坏我,T.bmp,Normalself,,,No,m,k,0,838
11,22,right,male,3,58,好我,S.bmp,Goodother,,,No,k,k,1,912
11,22,right,male,3,59,坏我,P.bmp,Badself,,,Yes,m,m,1,836
11,22,right,male,3,60,好人,C.bmp,Badother,,,No,k,k,1,950
11,22,right,male,3,61,好我,Tra.bmp,Goodself,,,Yes,k,m,0,852
11,22,right,male,3,62,坏我,P.bmp,Badself,,,Yes,m,m,1,873
11,22,right,male,3,63,好人,Tra.bmp,Goodself,,,No,k,k,1,1031
11,22,right,male,3,64,凡我,T.bmp,Normalself,,,Yes,m,m,1,793
11,22,right,male,3,65,凡人,T.bmp,Normalself,,,No,m,k,0,837
11,22,right,male,3,66,坏人,D.bmp,Normalother,,,No,k,k,1,1045
11,22,right,male,3,67,坏我,D.bmp,Normalother,,,No,k,k,1,917
11,22,right,male,3,68,好我,Tra.bmp,Goodself,,,Yes,m,m,1,786
11,22,right,male,3,69,坏人,C.bmp,Badother,,,Yes,k,m,0,1090
11,22,right,male,3,70,好人,P.bmp,Badself,,,No,k,k,1,874
11,22,right,male,3,71,坏我,P.bmp,Badself,,,Yes,k,m,0,1026
11,22,right,male,3,72,凡我,T.bmp,Normalself,,,Yes,m,m,1,836
11,22,right,male,3,73,凡人,S.bmp,Goodother,,,No,,k,0,0
11,22,right,male,3,74,坏人,T.bmp,Normalself,,,No,k,k,1,1069
11,22,right,male,3,75,坏人,C.bmp,Badother,,,Yes,m,m,1,869
11,22,right,male,3,76,好我,C.bmp,Badother,,,No,k,k,1,803
11,22,right,male,3,77,坏我,T.bmp,Normalself,,,No,k,k,1,1033
11,22,right,male,3,78,好人,S.bmp,Goodother,,,Yes,m,m,1,930
11,22,right,male,3,79,坏我,Tra.bmp,Goodself,,,No,k,k,1,1054
11,22,right,male,3,80,好人,D.bmp,Normalother,,,No,k,k,1,1069
11,22,right,male,3,81,凡人,D.bmp,Normalother,,,Yes,m,m,1,1015
11,22,right,male,3,82,坏我,C.bmp,Badother,,,No,k,k,1,927
11,22,right,male,3,83,坏我,S.bmp,Goodother,,,No,k,k,1,893
11,22,right,male,3,84,好我,Tra.bmp,Goodself,,,Yes,m,m,1,961
11,22,right,male,3,85,好人,S.bmp,Goodother,,,Yes,m,m,1,905
11,22,right,male,3,86,凡人,P.bmp,Badself,,,No,k,k,1,981
11,22,right,male,3,87,坏我,P.bmp,Badself,,,Yes,,m,0,0
11,22,right,male,3,88,坏人,C.bmp,Badother,,,Yes,m,m,1,1018
11,22,right,male,3,89,好我,Tra.bmp,Goodself,,,Yes,m,m,1,920
11,22,right,male,3,90,坏我,P.bmp,Badself,,,Yes,m,m,1,774
11,22,right,male,3,91,好人,T.bmp,Normalself,,,No,k,k,1,1072
11,22,right,male,3,92,好我,P.bmp,Badself,,,No,m,k,0,984
11,22,right,male,3,93,坏人,P.bmp,Badself,,,No,k,k,1,835
11,22,right,male,3,94,好我,Tra.bmp,Goodself,,,Yes,m,m,1,793
11,22,right,male,3,95,凡人,D.bmp,Normalother,,,Yes,k,m,0,863
11,22,right,male,3,96,凡我,S.bmp,Goodother,,,No,k,k,1,863
11,22,right,male,3,97,凡我,Tra.bmp,Goodself,,,No,k,k,1,1023
11,22,right,male,3,98,坏人,S.bmp,Goodother,,,No,k,k,1,925
11,22,right,male,3,99,凡人,D.bmp,Normalother,,,Yes,m,m,1,955
11,22,right,male,3,100,好我,D.bmp,Normalother,,,No,k,k,1,872
11,22,right,male,3,101,好人,S.bmp,Goodother,,,Yes,k,m,0,938
11,22,right,male,3,102,凡我,C.bmp,Badother,,,No,k,k,1,894
11,22,right,male,3,103,好我,T.bmp,Normalself,,,No,,k,0,0
11,22,right,male,3,104,好人,S.bmp,Goodother,,,Yes,,m,0,0
11,22,right,male,3,105,凡我,P.bmp,Badself,,,No,k,k,1,805
11,22,right,male,3,106,凡我,T.bmp,Normalself,,,Yes,k,m,0,960
11,22,right,male,3,107,好人,S.bmp,Goodother,,,Yes,,m,0,0
11,22,right,male,3,108,坏人,C.bmp,Badother,,,Yes,m,m,1,710
11,22,right,male,3,109,凡人,D.bmp,Normalother,,,Yes,m,m,1,968
11,22,right,male,3,110,好人,C.bmp,Badother,,,No,k,k,1,1004
11,22,right,male,3,111,好我,S.bmp,Goodother,,,No,k,k,1,983
11,22,right,male,3,112,凡我,T.bmp,Normalself,,,Yes,m,m,1,1041
11,22,right,male,3,113,坏人,C.bmp,Badother,,,Yes,m,m,1,1089
11,22,right,male,3,114,凡我,D.bmp,Normalother,,,No,,k,0,0
11,22,right,male,3,115,凡我,T.bmp,Normalself,,,Yes,k,m,0,927
11,22,right,male,3,116,坏人,Tra.bmp,Goodself,,,No,k,k,1,1081
11,22,right,male,3,117,坏我,P.bmp,Badself,,,Yes,m,m,1,971
11,22,right,male,3,118,凡人,C.bmp,Badother,,,No,k,k,1,940
11,22,right,male,3,119,凡人,D.bmp,Normalother,,,Yes,m,m,1,1026
11,22,right,male,3,120,凡人,Tra.bmp,Goodself,,,No,k,k,1,934
11,22,right,male,4,1,坏我,P.bmp,Badself,,,Yes,,m,0,0
11,22,right,male,4,2,坏人,C.bmp,Badother,,,Yes,m,m,1,1066
11,22,right,male,4,3,凡我,T.bmp,Normalself,,,Yes,m,m,1,930
11,22,right,male,4,4,凡人,D.bmp,Normalother,,,Yes,m,m,1,921
11,22,right,male,4,5,凡人,P.bmp,Badself,,,No,k,k,1,845
11,22,right,male,4,6,凡人,D.bmp,Normalother,,,Yes,m,m,1,848
11,22,right,male,4,7,坏我,Tra.bmp,Goodself,,,No,m,k,0,894
11,22,right,male,4,8,凡人,Tra.bmp,Goodself,,,No,k,k,1,840
11,22,right,male,4,9,坏我,T.bmp,Normalself,,,No,,k,0,0
11,22,right,male,4,10,好人,S.bmp,Goodother,,,Yes,m,m,1,664
11,22,right,male,4,11,凡人,D.bmp,Normalother,,,Yes,m,m,1,903
11,22,right,male,4,12,凡人,C.bmp,Badother,,,No,k,k,1,837
11,22,right,male,4,13,凡我,C.bmp,Badother,,,No,k,k,1,1059
11,22,right,male,4,14,坏人,C.bmp,Badother,,,Yes,m,m,1,735
11,22,right,male,4,15,好人,C.bmp,Badother,,,No,m,k,0,987
11,22,right,male,4,16,好我,D.bmp,Normalother,,,No,m,k,0,973
11,22,right,male,4,17,好我,Tra.bmp,Goodself,,,Yes,m,m,1,826
11,22,right,male,4,18,坏我,C.bmp,Badother,,,No,k,k,1,1012
11,22,right,male,4,19,坏人,C.bmp,Badother,,,Yes,m,m,1,1078
11,22,right,male,4,20,凡我,P.bmp,Badself,,,No,,k,0,0
11,22,right,male,4,21,坏我,P.bmp,Badself,,,Yes,,m,0,0
11,22,right,male,4,22,凡我,D.bmp,Normalother,,,No,m,k,0,872
11,22,right,male,4,23,凡人,D.bmp,Normalother,,,Yes,m,m,1,753
11,22,right,male,4,24,好我,Tra.bmp,Goodself,,,Yes,m,m,1,879
11,22,right,male,4,25,坏我,P.bmp,Badself,,,Yes,,m,0,0
11,22,right,male,4,26,好我,Tra.bmp,Goodself,,,Yes,m,m,1,759
11,22,right,male,4,27,凡人,D.bmp,Normalother,,,Yes,m,m,1,995
11,22,right,male,4,28,好我,C.bmp,Badother,,,No,k,k,1,941
11,22,right,male,4,29,凡我,T.bmp,Normalself,,,Yes,m,m,1,870
11,22,right,male,4,30,凡我,Tra.bmp,Goodself,,,No,m,k,0,1008
11,22,right,male,4,31,坏人,C.bmp,Badother,,,Yes,m,m,1,974
11,22,right,male,4,32,好人,S.bmp,Goodother,,,Yes,m,m,1,871
11,22,right,male,4,33,好人,S.bmp,Goodother,,,Yes,m,m,1,767
11,22,right,male,4,34,坏我,P.bmp,Badself,,,Yes,m,m,1,1087
11,22,right,male,4,35,凡人,S.bmp,Goodother,,,No,k,k,1,1058
11,22,right,male,4,36,好人,D.bmp,Normalother,,,No,k,k,1,970
11,22,right,male,4,37,坏人,S.bmp,Goodother,,,No,,k,0,0
11,22,right,male,4,38,好我,P.bmp,Badself,,,No,,k,0,0
11,22,right,male,4,39,坏人,D.bmp,Normalother,,,No,k,k,1,870
11,22,right,male,4,40,好我,T.bmp,Normalself,,,No,k,k,1,1030
11,22,right,male,4,41,凡我,T.bmp,Normalself,,,Yes,m,m,1,911
11,22,right,male,4,42,坏我,D.bmp,Normalother,,,No,,k,0,0
11,22,right,male,4,43,好我,Tra.bmp,Goodself,,,Yes,m,m,1,739
11,22,right,male,4,44,坏人,C.bmp,Badother,,,Yes,k,m,0,941
11,22,right,male,4,45,坏人,P.bmp,Badself,,,No,k,k,1,945
11,22,right,male,4,46,好人,T.bmp,Normalself,,,No,k,k,1,853
11,22,right,male,4,47,凡我,T.bmp,Normalself,,,Yes,m,m,1,902
11,22,right,male,4,48,好人,S.bmp,Goodother,,,Yes,m,m,1,1034
11,22,right,male,4,49,凡我,T.bmp,Normalself,,,Yes,,m,0,0
11,22,right,male,4,50,好人,S.bmp,Goodother,,,Yes,m,m,1,1074
11,22,right,male,4,51,好我,Tra.bmp,Goodself,,,Yes,m,m,1,822
11,22,right,male,4,52,坏我,S.bmp,Goodother,,,No,,k,0,0
11,22,right,male,4,53,坏人,Tra.bmp,Goodself,,,No,k,k,1,981
11,22,right,male,4,54,坏我,P.bmp,Badself,,,Yes,k,m,0,1053
11,22,right,male,4,55,凡人,T.bmp,Normalself,,,No,m,k,0,755
11,22,right,male,4,56,好我,S.bmp,Goodother,,,No,k,k,1,871
11,22,right,male,4,57,凡我,S.bmp,Goodother,,,No,k,k,1,817
11,22,right,male,4,58,好人,P.bmp,Badself,,,No,k,k,1,1065
11,22,right,male,4,59,坏人,T.bmp,Normalself,,,No,k,k,1,1004
11,22,right,male,4,60,好人,Tra.bmp,Goodself,,,No,m,k,0,899
11,22,right,male,4,61,好人,S.bmp,Goodother,,,Yes,,m,0,0
11,22,right,male,4,62,好人,S.bmp,Goodother,,,Yes,m,m,1,843
11,22,right,male,4,63,坏人,Tra.bmp,Goodself,,,No,k,k,1,1045
11,22,right,male,4,64,好人,S.bmp,Goodother,,,Yes,m,m,1,687
11,22,right,male,4,65,凡我,T.bmp,Normalself,,,Yes,k,m,0,870
11,22,right,male,4,66,坏我,P.bmp,Badself,,,Yes,m,m,1,976
11,22,right,male,4,67,坏人,C.bmp,Badother,,,Yes,k,m,0,814
11,22,right,male,4,68,坏人,C.bmp,Badother,,,Yes,,m,0,0
11,22,right,male,4,69,好我,T.bmp,Normalself,,,No,k,k,1,990
11,22,right,male,4,70,坏我,S.bmp,Goodother,,,No,,k,0,0
11,22,right,male,4,71,凡人,D.bmp,Normalother,,,Yes,m,m,1,578
11,22,right,male,4,72,凡人,S.bmp,Goodother,,,No,k,k,1,959
11,22,right,male,4,73,好人,S.bmp,Goodother,,,Yes,m,m,1,781
11,22,right,male,4,74,好人,S.bmp,Goodother,,,Yes,m,m,1,651
11,22,right,male,4,75,坏我,P.bmp,Badself,,,Yes,m,m,1,1031
11,22,right,male,4,76,凡我,P.bmp,Badself,,,No,k,k,1,847
11,22,right,male,4,77,好人,T.bmp,Normalself,,,No,k,k,1,873
11,22,right,male,4,78,坏人,C.bmp,Badother,,,Yes,m,m,1,1000
11,22,right,male,4,79,好我,Tra.bmp,Goodself,,,Yes,m,m,1,956
11,22,right,male,4,80,坏我,P.bmp,Badself,,,Yes,m,m,1,794
11,22,right,male,4,81,好人,P.bmp,Badself,,,No,k,k,1,986
11,22,right,male,4,82,凡我,S.bmp,Goodother,,,No,k,k,1,892
11,22,right,male,4,83,凡人,C.bmp,Badother,,,No,k,k,1,966
11,22,right,male,4,84,好我,S.bmp,Goodother,,,No,k,k,1,1003
11,22,right,male,4,85,凡我,T.bmp,Normalself,,,Yes,m,m,1,849
11,22,right,male,4,86,好人,Tra.bmp,Goodself,,,No,m,k,0,989
11,22,right,male,4,87,好我,D.bmp,Normalother,,,No,k,k,1,1085
11,22,right,male,4,88,好人,C.bmp,Badother,,,No,,k,0,0
11,22,right,male,4,89,好我,Tra.bmp,Goodself,,,Yes,m,m,1,836
11,22,right,male,4,90,好我,Tra.bmp,Goodself,,,Yes,m,m,1,991
11,22,right,male,4,91,坏人,T.bmp,Normalself,,,No,k,k,1,1019
11,22,right,male,4,92,凡人,D.bmp,Normalother,,,Yes,m,m,1,959
11,22,right,male,4,93,坏我,D.bmp,Normalother,,,No,k,k,1,893
11,22,right,male,4,94,凡我,D.bmp,Normalother,,,No,,k,0,0
11,22,right,male,4,95,凡人,P.bmp,Badself,,,No,k,k,1,962
11,22,right,male,4,96,好我,Tra.bmp,Goodself,,,Yes,m,m,1,714
11,22,right,male,4,97,坏人,C.bmp,Badother,,,Yes,m,m,1,800
11,22,right,male,4,98,坏人,P.bmp,Badself,,,No,k,k,1,1050
11,22,right,male,4,99,坏人,C.bmp,Badother,,,Yes,m,m,1,766
11,22,right,male,4,100,凡我,T.bmp,Normalself,,,Yes,k,m,0,964
11,22,right,male,4,101,凡我,T.bmp,Normalself,,,Yes,m,m,1,709
11,22,right,male,4,102,坏人,S.bmp,Goodother,,,No,k,k,1,975
11,22,right,male,4,103,好我,Tra.bmp,Goodself,,,Yes,k,m,0,865
11,22,right,male,4,104,凡我,Tra.bmp,Goodself,,,No,m,k,0,1049
11,22,right,male,4,105,坏人,D.bmp,Normalother,,,No,k,k,1,1029
11,22,right,male,4,106,坏我,P.bmp,Badself,,,Yes,m,m,1,959
11,22,right,male,4,107,坏我,Tra.bmp,Goodself,,,No,k,k,1,966
11,22,right,male,4,108,好我,C.bmp,Badother,,,No,,k,0,0
11,22,right,male,4,109,好人,D.bmp,Normalother,,,No,k,k,1,962
11,22,right,male,4,110,凡人,D.bmp,Normalother,,,Yes,m,m,1,922
11,22,right,male,4,111,坏我,C.bmp,Badother,,,No,k,k,1,932
11,22,right,male,4,112,凡人,T.bmp,Normalself,,,No,k,k,1,1010
11,22,right,male,4,113,坏我,P.bmp,Badself,,,Yes,m,m,1,980
11,22,right,male,4,114,凡我,T.bmp,Normalself,,,Yes,k,m,0,868
11,22,right,male,4,115,凡我,C.bmp,Badother,,,No,k,k,1,794
11,22,right,male,4,116,好我,P.bmp,Badself,,,No,k,k,1,882
11,22,right,male,4,117,凡人,Tra.bmp,Goodself,,,No,k,k,1,800
11,22,right,male,4,118,坏我,T.bmp,Normalself,,,No,k,k,1,1022
11,22,right,male,4,119,凡人,D.bmp,Normalother,,,Yes,m,m,1,820
11,22,right,male,4,120,凡人,D.bmp,Normalother,,,Yes,m,m,1,939
11,22,right,male,5,1,好人,S.bmp,Goodother,,,Yes,,m,0,0
11,22,right,male,5,2,坏人,P.bmp,Badself,,,No,k,k,1,956
11,22,right,male,5,3,凡我,S.bmp,Goodother,,,No,k,k,1,922
11,22,right,male,5,4,坏人,C.bmp,Badother,,,Yes,m,m,1,1032
11,22,right,male,5,5,好我,D.bmp,Normalother,,,No,k,k,1,846
11,22,right,male,5,6,好人,C.bmp,Badother,,,No,k,k,1,774
11,22,right,male,5,7,凡人,P.bmp,Badself,,,No,k,k,1,837
11,22,right,male,5,8,坏我,P.bmp,Badself,,,Yes,k,m,0,833
11,22,right,male,5,9,坏人,C.bmp,Badother,,,Yes,m,m,1,1021
11,22,right,male,5,10,坏人,Tra.bmp,Goodself,,,No,k,k,1,917
11,22,right,male,5,11,好我,S.bmp,Goodother,,,No,,k,0,0
11,22,right,male,5,12,坏我,P.bmp,Badself,,,Yes,m,m,1,929
11,22,right,male,5,13,好我,T.bmp,Normalself,,,No,k,k,1,806
11,22,right,male,5,14,凡我,T.bmp,Normalself,,,Yes,m,m,1,804
11,22,right,male,5,15,凡人,D.bmp,Normalother,,,Yes,m,m,1,688
11,22,right,male,5,16,坏我,T.bmp,Normalself,,,No,m,k,0,938
11,22,right,male,5,17,好我,Tra.bmp,Goodself,,,Yes,m,m,1,780
11,22,right,male,5,18,坏人,C.bmp,Badother,,,Yes,m,m,1,843
11,22,right,male,5,19,凡人,D.bmp,Normalother,,,Yes,m,m,1,991
11,22,right,male,5,20,好我,Tra.bmp,Goodself,,,Yes,,m,0,0
11,22,right,male,5,21,凡人,D.bmp,Normalother,,,Yes,m,m,1,1071
11,22,right,male,5,22,好人,S.bmp,Goodother,,,Yes,m,m,1,883
11,22,right,male,5,23,坏人,C.bmp,Badother,,,Yes,m,m,1,675
11,22,right,male,5,24,凡我,C.bmp,Badother,,,No,m,k,0,953
11,22,right,male,5,25,凡我,T.bmp,Normalself,,,Yes,m,m,1,978
11,22,right,male,5,26,坏我,D.bmp,Normalother,,,No,k,k,1,919
11,22,right,male,5,27,凡人,S.bmp,Goodother,,,No,k,k,1,973
11,22,right,male,5,28,坏我,P.bmp,Badself,,,Yes,k,m,0,1031
11,22,right,male,5,29,凡我,T.bmp,Normalself,,,Yes,m,m,1,853
11,22,right,male,5,30,坏我,S.bmp,Goodother,,,No,k,k,1,1005
11,22,right,male,5,31,凡人,Tra.bmp,Goodself,,,No,,k,0,0
11,22,right,male,5,32,凡我,P.bmp,Badself,,,No,m,k,0,836
11,22,right,male,5,33,凡人,D.bmp,Normalother,,,Yes,m,m,1,930
11,22,right,male,5,34,好我,Tra.bmp,Goodself,,,Yes,m,m,1,976
11,22,right,male,5,35,好我,Tra.bmp,Goodself,,,Yes,m,m,1,792
11,22,right,male,5,36,凡我,T.bmp,Normalself,,,Yes,k,m,0,860
11,22,right,male,5,37,好人,D.bmp,Normalother,,,No,m,k,0,741
11,22,right,male,5,38,好人,S.bmp,Goodother,,,Yes,m,m,1,951
11,22,right,male,5,39,凡我,T.bmp,Normalself,,,Yes,m,m,1,965
11,22,right,male,5,40,凡我,Tra.bmp,Goodself,,,No,k,k,1,847
11,22,right,male,5,41,好人,S.bmp,Goodother,,,Yes,m,m,1,993
11,22,right,male,5,42,坏我,C.bmp,Badother,,,No,m,k,0,965
11,22,right,male,5,43,好人,Tra.bmp,Goodself,,,No,m,k,0,953
11,22,right,male,5,44,坏我,Tra.bmp,Goodself,,,No,m,k,0,1004
11,22,right,male,5,45,凡人,D.bmp,Normalother,,,Yes,m,m,1,1056
11,22,right,male,5,46,好我,C.bmp,Badother,,,No,k,k,1,958
11,22,right,male,5,47,凡人,T.bmp,Normalself,,,No,k,k,1,956
11,22,right,male,5,48,坏我,P.bmp,Badself,,,Yes,m,m,1,874
11,22,right,male,5,49,凡我,D.bmp,Normalother,,,No,k,k,1,959
11,22,right,male,5,50,坏人,S.bmp,Goodother,,,No,k,k,1,935
11,22,right,male,5,51,坏我,P.bmp,Badself,,,Yes,m,m,1,883
11,22,right,male,5,52,好人,S.bmp,Goodother,,,Yes,m,m,1,949
11,22,right,male,5,53,坏人,C.bmp,Badother,,,Yes,m,m,1,943
11,22,right,male,5,54,坏人,D.bmp,Normalother,,,No,k,k,1,1040
11,22,right,male,5,55,好我,P.bmp,Badself,,,No,,k,0,0
11,22,right,male,5,56,好人,P.bmp,Badself,,,No,k,k,1,991
11,22,right,male,5,57,坏人,T.bmp,Normalself,,,No,k,k,1,909
11,22,right,male,5,58,好人,T.bmp,Normalself,,,No,k,k,1,979
11,22,right,male,5,59,好我,Tra.bmp,Goodself,,,Yes,m,m,1,901
11,22,right,male,5,60,凡人,C.bmp,Badother,,,No,m,k,0,1005
11,22,right,male,5,61,坏人,C.bmp,Badother,,,Yes,m,m,1,852
11,22,right,male,5,62,好我,Tra.bmp,Goodself,,,Yes,k,m,0,894
11,22,right,male,5,63,坏我,P.bmp,Badself,,,Yes,m,m,1,826
11,22,right,male,5,64,凡我,T.bmp,Normalself,,,Yes,m,m,1,968
11,22,right,male,5,65,坏我,P.bmp,Badself,,,Yes,k,m,0,930
11,22,right,male,5,66,凡人,D.bmp,Normalother,,,Yes,m,m,1,822
11,22,right,male,5,67,坏人,C.bmp,Badother,,,Yes,m,m,1,999
11,22,right,male,5,68,坏人,C.bmp,Badother,,,Yes,,m,0,0
11,22,right,male,5,69,坏人,Tra.bmp,Goodself,,,No,m,k,0,887
11,22,right,male,5,70,好人,D.bmp,Normalother,,,No,k,k,1,849
11,22,right,male,5,71,坏人,C.bmp,Badother,,,Yes,m,m,1,785
11,22,right,male,5,72,凡我,C.bmp,Badother,,,No,m,k,0,845
11,22,right,male,5,73,凡我,Tra.bmp,Goodself,,,No,k,k,1,910
11,22,right,male,5,74,坏我,C.bmp,Badother,,,No,m,k,0,990
