Subject,Age,Handedness,Sex,BlockList.Sample,SubTrial,Label,Target,Shape,YesNoResp,Target.CRESP,Target.RESP,Target.ACC,Target.RT
1050,19,right,female,,1,坏人,T.bmp,Bad,Yes,m,m,1,529
1050,19,right,female,,2,坏人,C.bmp,Normal,No,n,n,1,683
1050,19,right,female,,3,好人,C.bmp,Normal,No,n,m,0,548
1050,19,right,female,,4,坏人,T.bmp,Bad,Yes,m,m,1,603
1050,19,right,female,,5,好人,S.bmp,Good,Yes,m,m,1,484
1050,19,right,female,,6,常人,C.bmp,Normal,Yes,m,m,1,500
1050,19,right,female,,7,常人,S.bmp,Good,No,n,n,1,634
1050,19,right,female,,8,好人,T.bmp,Bad,No,n,n,1,677
1050,19,right,female,,9,坏人,S.bmp,Good,No,n,m,0,500
1050,19,right,female,,10,常人,C.bmp,Normal,Yes,m,m,1,472
1050,19,right,female,,11,常人,T.bmp,Bad,No,n,n,1,640
1050,19,right,female,,12,好人,S.bmp,Good,Yes,m,m,1,490
1050,19,right,female,,13,常人,C.bmp,Normal,Yes,m,m,1,577
1050,19,right,female,,14,常人,S.bmp,Good,No,n,n,1,708
1050,19,right,female,,15,常人,T.bmp,Bad,No,n,n,1,674
1050,19,right,female,,16,坏人,S.bmp,Good,No,n,n,1,746
1050,19,right,female,,17,好人,T.bmp,Bad,No,n,n,1,720
1050,19,right,female,,18,坏人,T.bmp,Bad,Yes,m,m,1,549
1050,19,right,female,,19,常人,C.bmp,Normal,Yes,m,m,1,684
1050,19,right,female,,20,好人,S.bmp,Good,Yes,m,m,1,530
1050,19,right,female,,21,好人,S.bmp,Good,Yes,m,m,1,559
1050,19,right,female,,22,坏人,C.bmp,Normal,No,n,n,1,601
1050,19,right,female,,23,好人,C.bmp,Normal,No,n,n,1,733
1050,19,right,female,,24,坏人,T.bmp,Bad,Yes,m,m,1,527
1050,19,right,female,1,1,好人,S.bmp,Good,Yes,m,m,1,523
1050,19,right,female,1,2,常人,C.bmp,Normal,Yes,m,m,1,534
1050,19,right,female,1,3,常人,T.bmp,Bad,No,n,n,1,559
1050,19,right,female,1,4,常人,S.bmp,Good,No,n,m,0,631
1050,19,right,female,1,5,好人,S.bmp,Good,Yes,m,m,1,490
1050,19,right,female,1,6,坏人,C.bmp,Normal,No,n,m,0,568
1050,19,right,female,1,7,好人,C.bmp,Normal,No,n,n,1,904
1050,19,right,female,1,8,坏人,T.bmp,Bad,Yes,m,m,1,469
1050,19,right,female,1,9,常人,C.bmp,Normal,Yes,m,m,1,725
1050,19,right,female,1,10,坏人,T.bmp,Bad,Yes,m,m,1,660
1050,19,right,female,1,11,好人,T.bmp,Bad,No,n,n,1,593
1050,19,right,female,1,12,坏人,S.bmp,Good,No,n,n,1,634
1050,19,right,female,1,13,坏人,S.bmp,Good,No,n,n,1,673
1050,19,right,female,1,14,常人,C.bmp,Normal,Yes,m,m,1,526
1050,19,right,female,1,15,坏人,T.bmp,Bad,Yes,m,m,1,557
1050,19,right,female,1,16,好人,C.bmp,Normal,No,n,n,1,584
1050,19,right,female,1,17,常人,S.bmp,Good,No,n,m,0,588
1050,19,right,female,1,18,好人,T.bmp,Bad,No,n,n,1,701
1050,19,right,female,1,19,坏人,T.bmp,Bad,Yes,m,m,1,518
1050,19,right,female,1,20,常人,T.bmp,Bad,No,n,n,1,739
1050,19,right,female,1,21,常人,C.bmp,Normal,Yes,m,m,1,614
1050,19,right,female,1,22,好人,S.bmp,Good,Yes,m,n,0,561
1050,19,right,female,1,23,坏人,C.bmp,Normal,No,n,n,1,776
1050,19,right,female,1,24,好人,S.bmp,Good,Yes,m,m,1,557
1050,19,right,female,1,25,坏人,T.bmp,Bad,Yes,m,m,1,585
1050,19,right,female,1,26,好人,T.bmp,Bad,No,n,n,1,512
1050,19,right,female,1,27,常人,C.bmp,Normal,Yes,m,m,1,735
1050,19,right,female,1,28,好人,S.bmp,Good,Yes,m,m,1,448
1050,19,right,female,1,29,常人,C.bmp,Normal,Yes,m,m,1,535
1050,19,right,female,1,30,坏人,T.bmp,Bad,Yes,m,m,1,518
1050,19,right,female,1,31,好人,S.bmp,Good,Yes,m,m,1,496
1050,19,right,female,1,32,好人,C.bmp,Normal,No,n,n,1,759
1050,19,right,female,1,33,常人,S.bmp,Good,No,n,m,0,787
1050,19,right,female,1,34,常人,T.bmp,Bad,No,n,n,1,579
1050,19,right,female,1,35,坏人,C.bmp,Normal,No,n,m,0,488
1050,19,right,female,1,36,坏人,S.bmp,Good,No,n,n,1,549
1050,19,right,female,1,37,好人,S.bmp,Good,Yes,m,m,1,559
1050,19,right,female,1,38,常人,T.bmp,Bad,No,n,n,1,471
1050,19,right,female,1,39,坏人,T.bmp,Bad,Yes,m,m,1,543
1050,19,right,female,1,40,坏人,T.bmp,Bad,Yes,m,m,1,723
1050,19,right,female,1,41,坏人,S.bmp,Good,No,n,n,1,641
1050,19,right,female,1,42,常人,S.bmp,Good,No,n,m,0,547
1050,19,right,female,1,43,坏人,C.bmp,Normal,No,n,n,1,506
1050,19,right,female,1,44,常人,C.bmp,Normal,Yes,m,m,1,537
1050,19,right,female,1,45,好人,T.bmp,Bad,No,n,n,1,639
1050,19,right,female,1,46,好人,S.bmp,Good,Yes,m,m,1,420
1050,19,right,female,1,47,好人,C.bmp,Normal,No,n,n,1,466
1050,19,right,female,1,48,常人,C.bmp,Normal,Yes,m,m,1,500
1050,19,right,female,1,49,常人,S.bmp,Good,No,n,n,1,588
1050,19,right,female,1,50,好人,S.bmp,Good,Yes,m,m,1,687
1050,19,right,female,1,51,坏人,C.bmp,Normal,No,n,n,1,607
1050,19,right,female,1,52,坏人,S.bmp,Good,No,n,m,0,605
1050,19,right,female,1,53,常人,C.bmp,Normal,Yes,m,m,1,496
1050,19,right,female,1,54,常人,T.bmp,Bad,No,n,n,1,681
1050,19,right,female,1,55,坏人,T.bmp,Bad,Yes,m,m,1,484
1050,19,right,female,1,56,好人,C.bmp,Normal,No,n,m,0,467
1050,19,right,female,1,57,好人,S.bmp,Good,Yes,m,m,1,485
1050,19,right,female,1,58,坏人,T.bmp,Bad,Yes,m,m,1,512
1050,19,right,female,1,59,常人,C.bmp,Normal,Yes,m,m,1,579
1050,19,right,female,1,60,好人,T.bmp,Bad,No,n,n,1,518
1050,19,right,female,1,61,好人,S.bmp,Good,Yes,m,m,1,441
1050,19,right,female,1,62,好人,S.bmp,Good,Yes,m,m,1,508
1050,19,right,female,1,63,坏人,T.bmp,Bad,Yes,m,n,0,523
1050,19,right,female,1,64,坏人,S.bmp,Good,No,n,m,0,471
1050,19,right,female,1,65,好人,T.bmp,Bad,No,n,n,1,549
1050,19,right,female,1,66,常人,C.bmp,Normal,Yes,m,m,1,547
1050,19,right,female,1,67,常人,C.bmp,Normal,Yes,m,m,1,565
1050,19,right,female,1,68,坏人,T.bmp,Bad,Yes,m,m,1,446
1050,19,right,female,1,69,好人,C.bmp,Normal,No,n,n,1,637
1050,19,right,female,1,70,常人,S.bmp,Good,No,n,m,0,462
1050,19,right,female,1,71,常人,T.bmp,Bad,No,n,n,1,680
1050,19,right,female,1,72,坏人,C.bmp,Normal,No,n,m,0,556
1050,19,right,female,2,1,坏人,C.bmp,Normal,No,n,n,1,501
1050,19,right,female,2,2,坏人,S.bmp,Good,No,n,n,1,541
1050,19,right,female,2,3,常人,S.bmp,Good,No,n,n,1,713
1050,19,right,female,2,4,好人,C.bmp,Normal,No,n,n,1,458
1050,19,right,female,2,5,坏人,T.bmp,Bad,Yes,m,m,1,477
1050,19,right,female,2,6,坏人,T.bmp,Bad,Yes,m,m,1,431
1050,19,right,female,2,7,常人,C.bmp,Normal,Yes,m,m,1,560
1050,19,right,female,2,8,好人,S.bmp,Good,Yes,m,m,1,510
1050,19,right,female,2,9,好人,T.bmp,Bad,No,n,n,1,523
1050,19,right,female,2,10,好人,S.bmp,Good,Yes,m,m,1,462
1050,19,right,female,2,11,常人,T.bmp,Bad,No,n,n,1,525
1050,19,right,female,2,12,常人,C.bmp,Normal,Yes,m,m,1,521
1050,19,right,female,2,13,好人,S.bmp,Good,Yes,m,m,1,478
1050,19,right,female,2,14,坏人,T.bmp,Bad,Yes,m,n,0,491
1050,19,right,female,2,15,常人,S.bmp,Good,No,n,m,0,453
1050,19,right,female,2,16,好人,C.bmp,Normal,No,n,n,1,588
1050,19,right,female,2,17,常人,T.bmp,Bad,No,n,n,1,562
1050,19,right,female,2,18,坏人,T.bmp,Bad,Yes,m,n,0,379
1050,19,right,female,2,19,好人,S.bmp,Good,Yes,m,m,1,451
1050,19,right,female,2,20,常人,C.bmp,Normal,Yes,m,m,1,565
1050,19,right,female,2,21,常人,C.bmp,Normal,Yes,m,m,1,518
1050,19,right,female,2,22,坏人,S.bmp,Good,No,n,n,1,544
1050,19,right,female,2,23,好人,T.bmp,Bad,No,n,n,1,509
1050,19,right,female,2,24,坏人,C.bmp,Normal,No,n,n,1,529
1050,19,right,female,2,25,坏人,T.bmp,Bad,Yes,m,n,0,628
1050,19,right,female,2,26,常人,T.bmp,Bad,No,n,n,1,540
1050,19,right,female,2,27,坏人,T.bmp,Bad,Yes,m,m,1,487
1050,19,right,female,2,28,常人,C.bmp,Normal,Yes,m,m,1,470
1050,19,right,female,2,29,常人,C.bmp,Normal,Yes,m,m,1,424
1050,19,right,female,2,30,好人,T.bmp,Bad,No,n,n,1,558
1050,19,right,female,2,31,好人,S.bmp,Good,Yes,m,m,1,403
1050,19,right,female,2,32,坏人,C.bmp,Normal,No,n,n,1,532
1050,19,right,female,2,33,常人,S.bmp,Good,No,n,m,0,464
1050,19,right,female,2,34,坏人,S.bmp,Good,No,n,n,1,436
1050,19,right,female,2,35,好人,S.bmp,Good,Yes,m,n,0,457
1050,19,right,female,2,36,好人,C.bmp,Normal,No,n,n,1,604
1050,19,right,female,2,37,好人,S.bmp,Good,Yes,m,m,1,456
1050,19,right,female,2,38,常人,C.bmp,Normal,Yes,m,m,1,594
1050,19,right,female,2,39,好人,C.bmp,Normal,No,n,m,0,488
1050,19,right,female,2,40,常人,S.bmp,Good,No,n,m,0,531
1050,19,right,female,2,41,坏人,T.bmp,Bad,Yes,m,n,0,460
1050,19,right,female,2,42,常人,T.bmp,Bad,No,n,n,1,704
1050,19,right,female,2,43,好人,T.bmp,Bad,No,n,m,0,539
1050,19,right,female,2,44,常人,C.bmp,Normal,Yes,m,m,1,456
1050,19,right,female,2,45,坏人,T.bmp,Bad,Yes,m,n,0,547
1050,19,right,female,2,46,好人,S.bmp,Good,Yes,m,m,1,511
1050,19,right,female,2,47,坏人,C.bmp,Normal,No,n,n,1,539
1050,19,right,female,2,48,坏人,S.bmp,Good,No,n,n,1,656
1050,19,right,female,2,49,常人,T.bmp,Bad,No,n,n,1,610
1050,19,right,female,2,50,常人,C.bmp,Normal,Yes,m,m,1,395
1050,19,right,female,2,51,坏人,T.bmp,Bad,Yes,m,n,0,518
1050,19,right,female,2,52,常人,S.bmp,Good,No,n,n,1,592
1050,19,right,female,2,53,好人,T.bmp,Bad,No,n,n,1,605
1050,19,right,female,2,54,常人,C.bmp,Normal,Yes,m,m,1,532
1050,19,right,female,2,55,坏人,S.bmp,Good,No,n,n,1,619
1050,19,right,female,2,56,好人,S.bmp,Good,Yes,m,m,1,338
1050,19,right,female,2,57,好人,C.bmp,Normal,No,n,n,1,467
1050,19,right,female,2,58,好人,S.bmp,Good,Yes,m,m,1,480
1050,19,right,female,2,59,坏人,C.bmp,Normal,No,n,m,0,469
1050,19,right,female,2,60,坏人,T.bmp,Bad,Yes,m,m,1,461
1050,19,right,female,2,61,常人,C.bmp,Normal,Yes,m,m,1,533
1050,19,right,female,2,62,坏人,T.bmp,Bad,Yes,m,m,1,501
1050,19,right,female,2,63,常人,S.bmp,Good,No,n,n,1,669
1050,19,right,female,2,64,好人,T.bmp,Bad,No,n,m,0,533
1050,19,right,female,2,65,坏人,S.bmp,Good,No,n,n,1,733
1050,19,right,female,2,66,好人,S.bmp,Good,Yes,m,m,1,475
1050,19,right,female,2,67,好人,S.bmp,Good,Yes,m,m,1,506
1050,19,right,female,2,68,常人,C.bmp,Normal,Yes,m,m,1,542
1050,19,right,female,2,69,坏人,T.bmp,Bad,Yes,m,n,0,740
1050,19,right,female,2,70,好人,C.bmp,Normal,No,n,n,1,518
1050,19,right,female,2,71,坏人,C.bmp,Normal,No,n,n,1,659
1050,19,right,female,2,72,常人,T.bmp,Bad,No,n,n,1,663
1050,19,right,female,3,1,坏人,T.bmp,Bad,Yes,m,m,1,472
1050,19,right,female,3,2,坏人,C.bmp,Normal,No,n,n,1,508
1050,19,right,female,3,3,常人,C.bmp,Normal,Yes,m,m,1,504
1050,19,right,female,3,4,常人,T.bmp,Bad,No,n,n,1,518
1050,19,right,female,3,5,坏人,T.bmp,Bad,Yes,m,m,1,540
1050,19,right,female,3,6,常人,S.bmp,Good,No,n,n,1,499
1050,19,right,female,3,7,常人,C.bmp,Normal,Yes,m,n,0,494
1050,19,right,female,3,8,好人,S.bmp,Good,Yes,m,m,1,494
1050,19,right,female,3,9,好人,C.bmp,Normal,No,n,n,1,471
1050,19,right,female,3,10,坏人,S.bmp,Good,No,n,n,1,553
1050,19,right,female,3,11,好人,S.bmp,Good,Yes,m,m,1,566
1050,19,right,female,3,12,好人,T.bmp,Bad,No,n,n,1,442
1050,19,right,female,3,13,坏人,S.bmp,Good,No,n,m,0,420
1050,19,right,female,3,14,好人,C.bmp,Normal,No,n,n,1,484
1050,19,right,female,3,15,好人,S.bmp,Good,Yes,m,m,1,500
1050,19,right,female,3,16,常人,T.bmp,Bad,No,n,n,1,596
1050,19,right,female,3,17,常人,S.bmp,Good,No,n,n,1,540
1050,19,right,female,3,18,常人,C.bmp,Normal,Yes,m,m,1,705
1050,19,right,female,3,19,好人,T.bmp,Bad,No,n,m,0,522
1050,19,right,female,3,20,坏人,C.bmp,Normal,No,n,n,1,573
1050,19,right,female,3,21,坏人,T.bmp,Bad,Yes,m,m,1,509
1050,19,right,female,3,22,坏人,T.bmp,Bad,Yes,m,m,1,522
1050,19,right,female,3,23,常人,C.bmp,Normal,Yes,m,m,1,509
1050,19,right,female,3,24,好人,S.bmp,Good,Yes,m,m,1,590
1050,19,right,female,3,25,坏人,T.bmp,Bad,Yes,m,n,0,475
1050,19,right,female,3,26,常人,C.bmp,Normal,Yes,m,m,1,494
1050,19,right,female,3,27,常人,T.bmp,Bad,No,n,n,1,530
1050,19,right,female,3,28,坏人,T.bmp,Bad,Yes,m,m,1,525
1050,19,right,female,3,29,常人,C.bmp,Normal,Yes,m,m,1,461
1050,19,right,female,3,30,好人,T.bmp,Bad,No,n,n,1,482
1050,19,right,female,3,31,坏人,C.bmp,Normal,No,n,n,1,667
1050,19,right,female,3,32,常人,S.bmp,Good,No,n,n,1,684
1050,19,right,female,3,33,坏人,S.bmp,Good,No,n,m,0,620
1050,19,right,female,3,34,好人,C.bmp,Normal,No,n,n,1,513
1050,19,right,female,3,35,好人,S.bmp,Good,Yes,m,m,1,606
1050,19,right,female,3,36,好人,S.bmp,Good,Yes,m,m,1,675
1050,19,right,female,3,37,好人,S.bmp,Good,Yes,m,m,1,436
1050,19,right,female,3,38,坏人,T.bmp,Bad,Yes,m,m,1,585
1050,19,right,female,3,39,坏人,S.bmp,Good,No,n,n,1,553
1050,19,right,female,3,40,坏人,T.bmp,Bad,Yes,m,m,1,525
1050,19,right,female,3,41,常人,T.bmp,Bad,No,n,n,1,509
1050,19,right,female,3,42,坏人,C.bmp,Normal,No,n,n,1,649
1050,19,right,female,3,43,好人,T.bmp,Bad,No,n,n,1,606
1050,19,right,female,3,44,常人,C.bmp,Normal,Yes,m,m,1,432
1050,19,right,female,3,45,常人,S.bmp,Good,No,n,n,1,549
1050,19,right,female,3,46,常人,C.bmp,Normal,Yes,m,n,0,592
1050,19,right,female,3,47,好人,C.bmp,Normal,No,n,n,1,682
1050,19,right,female,3,48,好人,S.bmp,Good,Yes,m,n,0,458
1050,19,right,female,3,49,好人,C.bmp,Normal,No,n,n,1,435
1050,19,right,female,3,50,常人,T.bmp,Bad,No,n,n,1,563
1050,19,right,female,3,51,常人,C.bmp,Normal,Yes,m,n,0,607
1050,19,right,female,3,52,好人,S.bmp,Good,Yes,m,m,1,507
1050,19,right,female,3,53,好人,T.bmp,Bad,No,n,n,1,546
1050,19,right,female,3,54,坏人,T.bmp,Bad,Yes,m,m,1,511
1050,19,right,female,3,55,常人,S.bmp,Good,No,n,n,1,470
1050,19,right,female,3,56,常人,C.bmp,Normal,Yes,m,m,1,364
1050,19,right,female,3,57,好人,S.bmp,Good,Yes,m,n,0,424
1050,19,right,female,3,58,坏人,T.bmp,Bad,Yes,m,m,1,568
1050,19,right,female,3,59,坏人,C.bmp,Normal,No,n,n,1,533
1050,19,right,female,3,60,坏人,S.bmp,Good,No,n,n,1,582
1050,19,right,female,3,61,坏人,T.bmp,Bad,Yes,m,m,1,536
1050,19,right,female,3,62,常人,S.bmp,Good,No,n,n,1,516
1050,19,right,female,3,63,好人,T.bmp,Bad,No,n,m,0,359
1050,19,right,female,3,64,坏人,C.bmp,Normal,No,n,n,1,458
1050,19,right,female,3,65,好人,C.bmp,Normal,No,n,n,1,444
1050,19,right,female,3,66,常人,C.bmp,Normal,Yes,m,m,1,617
1050,19,right,female,3,67,好人,S.bmp,Good,Yes,m,n,0,506
1050,19,right,female,3,68,坏人,T.bmp,Bad,Yes,m,m,1,462
1050,19,right,female,3,69,好人,S.bmp,Good,Yes,m,m,1,492
1050,19,right,female,3,70,常人,T.bmp,Bad,No,n,m,0,532
1050,19,right,female,3,71,常人,C.bmp,Normal,Yes,m,n,0,482
1050,19,right,female,3,72,坏人,S.bmp,Good,No,n,m,0,534
1050,19,right,female,4,1,坏人,S.bmp,Good,No,n,n,1,505
1050,19,right,female,4,2,常人,T.bmp,Bad,No,n,n,1,527
1050,19,right,female,4,3,常人,C.bmp,Normal,Yes,m,m,1,566
1050,19,right,female,4,4,好人,C.bmp,Normal,No,n,n,1,503
1050,19,right,female,4,5,坏人,T.bmp,Bad,Yes,m,m,1,530
1050,19,right,female,4,6,常人,C.bmp,Normal,Yes,m,m,1,576
1050,19,right,female,4,7,好人,S.bmp,Good,Yes,m,m,1,508
1050,19,right,female,4,8,好人,T.bmp,Bad,No,n,n,1,523
1050,19,right,female,4,9,好人,S.bmp,Good,Yes,m,m,1,512
1050,19,right,female,4,10,坏人,C.bmp,Normal,No,n,n,1,557
1050,19,right,female,4,11,坏人,T.bmp,Bad,Yes,m,m,1,424
1050,19,right,female,4,12,常人,S.bmp,Good,No,n,n,1,823
1050,19,right,female,4,13,常人,T.bmp,Bad,No,n,n,1,497
1050,19,right,female,4,14,常人,S.bmp,Good,No,n,n,1,437
1050,19,right,female,4,15,好人,T.bmp,Bad,No,n,n,1,470
1050,19,right,female,4,16,坏人,T.bmp,Bad,Yes,m,m,1,444
1050,19,right,female,4,17,好人,C.bmp,Normal,No,n,n,1,511
1050,19,right,female,4,18,好人,S.bmp,Good,Yes,m,m,1,497
1050,19,right,female,4,19,常人,C.bmp,Normal,Yes,m,n,0,456
1050,19,right,female,4,20,常人,C.bmp,Normal,Yes,m,m,1,480
1050,19,right,female,4,21,坏人,T.bmp,Bad,Yes,m,m,1,446
1050,19,right,female,4,22,坏人,C.bmp,Normal,No,n,n,1,494
1050,19,right,female,4,23,坏人,S.bmp,Good,No,n,n,1,466
1050,19,right,female,4,24,好人,S.bmp,Good,Yes,m,n,0,446
1050,19,right,female,4,25,坏人,C.bmp,Normal,No,n,n,1,456
1050,19,right,female,4,26,常人,C.bmp,Normal,Yes,m,m,1,517
1050,19,right,female,4,27,好人,S.bmp,Good,Yes,m,m,1,497
1050,19,right,female,4,28,好人,C.bmp,Normal,No,n,n,1,560
1050,19,right,female,4,29,常人,T.bmp,Bad,No,n,n,1,466
1050,19,right,female,4,30,常人,S.bmp,Good,No,n,n,1,387
1050,19,right,female,4,31,常人,C.bmp,Normal,Yes,m,m,1,379
1050,19,right,female,4,32,坏人,T.bmp,Bad,Yes,m,m,1,755
1050,19,right,female,4,33,坏人,T.bmp,Bad,Yes,m,m,1,376
1050,19,right,female,4,34,好人,S.bmp,Good,Yes,m,n,0,457
1050,19,right,female,4,35,好人,T.bmp,Bad,No,n,n,1,493
1050,19,right,female,4,36,坏人,S.bmp,Good,No,n,n,1,580
1050,19,right,female,4,37,常人,C.bmp,Normal,Yes,m,m,1,605
1050,19,right,female,4,38,常人,C.bmp,Normal,Yes,m,m,1,416
1050,19,right,female,4,39,好人,S.bmp,Good,Yes,m,m,1,523
1050,19,right,female,4,40,常人,T.bmp,Bad,No,n,n,1,533
1050,19,right,female,4,41,好人,C.bmp,Normal,No,n,n,1,653
1050,19,right,female,4,42,坏人,T.bmp,Bad,Yes,m,m,1,471
1050,19,right,female,4,43,好人,T.bmp,Bad,No,n,n,1,522
1050,19,right,female,4,44,坏人,T.bmp,Bad,Yes,m,m,1,550
1050,19,right,female,4,45,坏人,C.bmp,Normal,No,n,n,1,462
1050,19,right,female,4,46,好人,S.bmp,Good,Yes,m,m,1,457
1050,19,right,female,4,47,常人,S.bmp,Good,No,n,n,1,529
1050,19,right,female,4,48,坏人,S.bmp,Good,No,n,n,1,620
1050,19,right,female,4,49,坏人,S.bmp,Good,No,n,n,1,440
1050,19,right,female,4,50,好人,C.bmp,Normal,No,n,n,1,449
1050,19,right,female,4,51,常人,C.bmp,Normal,Yes,m,n,0,436
1050,19,right,female,4,52,坏人,C.bmp,Normal,No,n,m,0,514
1050,19,right,female,4,53,好人,T.bmp,Bad,No,n,n,1,590
1050,19,right,female,4,54,常人,T.bmp,Bad,No,n,n,1,579
1050,19,right,female,4,55,常人,S.bmp,Good,No,n,n,1,473
1050,19,right,female,4,56,好人,S.bmp,Good,Yes,m,m,1,702
1050,19,right,female,4,57,常人,C.bmp,Normal,Yes,m,m,1,439
1050,19,right,female,4,58,坏人,T.bmp,Bad,Yes,m,m,1,354
1050,19,right,female,4,59,好人,S.bmp,Good,Yes,m,m,1,518
1050,19,right,female,4,60,坏人,T.bmp,Bad,Yes,m,m,1,412
1050,19,right,female,4,61,坏人,T.bmp,Bad,Yes,m,m,1,743
1050,19,right,female,4,62,坏人,C.bmp,Normal,No,n,n,1,703
1050,19,right,female,4,63,好人,T.bmp,Bad,No,n,n,1,644
1050,19,right,female,4,64,坏人,T.bmp,Bad,Yes,m,m,1,526
1050,19,right,female,4,65,常人,S.bmp,Good,No,n,n,1,783
1050,19,right,female,4,66,好人,S.bmp,Good,Yes,m,m,1,389
1050,19,right,female,4,67,好人,S.bmp,Good,Yes,m,m,1,499
1050,19,right,female,4,68,常人,C.bmp,Normal,Yes,m,n,0,646
1050,19,right,female,4,69,坏人,S.bmp,Good,No,n,n,1,534
1050,19,right,female,4,70,好人,C.bmp,Normal,No,n,n,1,518
1050,19,right,female,4,71,常人,C.bmp,Normal,Yes,m,m,1,418
1050,19,right,female,4,72,常人,T.bmp,Bad,No,n,n,1,508
1050,19,right,female,5,1,常人,C.bmp,Normal,Yes,m,n,0,634
1050,19,right,female,5,2,好人,S.bmp,Good,Yes,m,m,1,463
1050,19,right,female,5,3,坏人,C.bmp,Normal,No,n,n,1,466
1050,19,right,female,5,4,坏人,S.bmp,Good,No,n,n,1,604
1050,19,right,female,5,5,常人,T.bmp,Bad,No,n,n,1,630
1050,19,right,female,5,6,好人,C.bmp,Normal,No,n,m,0,491
1050,19,right,female,5,7,常人,S.bmp,Good,No,n,n,1,548
1050,19,right,female,5,8,好人,T.bmp,Bad,No,n,n,1,463
1050,19,right,female,5,9,好人,S.bmp,Good,Yes,m,n,0,444
1050,19,right,female,5,10,坏人,T.bmp,Bad,Yes,m,m,1,528
1050,19,right,female,5,11,常人,C.bmp,Normal,Yes,m,n,0,535
1050,19,right,female,5,12,坏人,T.bmp,Bad,Yes,m,m,1,568
1050,19,right,female,5,13,坏人,T.bmp,Bad,Yes,m,m,1,524
1050,19,right,female,5,14,坏人,S.bmp,Good,No,n,n,1,562
1050,19,right,female,5,15,好人,T.bmp,Bad,No,n,n,1,643
1050,19,right,female,5,16,常人,C.bmp,Normal,Yes,m,m,1,517
1050,19,right,female,5,17,坏人,C.bmp,Normal,No,n,n,1,556
1050,19,right,female,5,18,常人,C.bmp,Normal,Yes,m,m,1,494
1050,19,right,female,5,19,常人,S.bmp,Good,No,n,n,1,510
1050,19,right,female,5,20,坏人,T.bmp,Bad,Yes,m,m,1,457
1050,19,right,female,5,21,好人,C.bmp,Normal,No,n,n,1,455
1050,19,right,female,5,22,好人,S.bmp,Good,Yes,m,m,1,471
1050,19,right,female,5,23,常人,T.bmp,Bad,No,n,n,1,451
1050,19,right,female,5,24,好人,S.bmp,Good,Yes,m,m,1,495
1050,19,right,female,5,25,坏人,T.bmp,Bad,Yes,m,m,1,582
1050,19,right,female,5,26,好人,T.bmp,Bad,No,n,n,1,491
1050,19,right,female,5,27,常人,T.bmp,Bad,No,n,n,1,456
1050,19,right,female,5,28,好人,C.bmp,Normal,No,n,n,1,508
1050,19,right,female,5,29,常人,C.bmp,Normal,Yes,m,m,1,399
1050,19,right,female,5,30,好人,S.bmp,Good,Yes,m,m,1,406
1050,19,right,female,5,31,坏人,C.bmp,Normal,No,n,n,1,564
1050,19,right,female,5,32,常人,C.bmp,Normal,Yes,m,m,1,360
1050,19,right,female,5,33,坏人,T.bmp,Bad,Yes,m,m,1,543
1050,19,right,female,5,34,好人,S.bmp,Good,Yes,m,m,1,410
1050,19,right,female,5,35,坏人,S.bmp,Good,No,n,n,1,494
1050,19,right,female,5,36,常人,S.bmp,Good,No,n,m,0,495
1050,19,right,female,5,37,好人,S.bmp,Good,Yes,m,m,1,422
1050,19,right,female,5,38,坏人,T.bmp,Bad,Yes,m,m,1,545
1050,19,right,female,5,39,常人,C.bmp,Normal,Yes,m,m,1,492
1050,19,right,female,5,40,坏人,C.bmp,Normal,No,n,m,0,433
1050,19,right,female,5,41,常人,S.bmp,Good,No,n,n,1,668
1050,19,right,female,5,42,常人,T.bmp,Bad,No,n,n,1,503
1050,19,right,female,5,43,好人,C.bmp,Normal,No,n,n,1,476
1050,19,right,female,5,44,坏人,S.bmp,Good,No,n,n,1,777
1050,19,right,female,5,45,常人,C.bmp,Normal,Yes,m,m,1,442
1050,19,right,female,5,46,好人,S.bmp,Good,Yes,m,m,1,478
1050,19,right,female,5,47,好人,T.bmp,Bad,No,n,n,1,526
1050,19,right,female,5,48,坏人,T.bmp,Bad,Yes,m,n,0,438
1050,19,right,female,5,49,坏人,S.bmp,Good,No,n,n,1,593
1050,19,right,female,5,50,常人,C.bmp,Normal,Yes,m,m,1,517
1050,19,right,female,5,51,坏人,C.bmp,Normal,No,n,n,1,503
1050,19,right,female,5,52,坏人,T.bmp,Bad,Yes,m,m,1,490
1050,19,right,female,5,53,好人,S.bmp,Good,Yes,m,m,1,586
1050,19,right,female,5,54,常人,S.bmp,Good,No,n,n,1,536
1050,19,right,female,5,55,常人,T.bmp,Bad,No,n,n,1,662
1050,19,right,female,5,56,好人,S.bmp,Good,Yes,m,m,1,378
1050,19,right,female,5,57,坏人,T.bmp,Bad,Yes,m,m,1,435
1050,19,right,female,5,58,好人,C.bmp,Normal,No,n,n,1,463
1050,19,right,female,5,59,常人,C.bmp,Normal,Yes,m,n,0,390
1050,19,right,female,5,60,好人,T.bmp,Bad,No,n,n,1,447
1050,19,right,female,5,61,好人,S.bmp,Good,Yes,m,m,1,436
1050,19,right,female,5,62,常人,C.bmp,Normal,Yes,m,m,1,551
1050,19,right,female,5,63,好人,C.bmp,Normal,No,n,m,0,451
1050,19,right,female,5,64,常人,C.bmp,Normal,Yes,m,m,1,460
1050,19,right,female,5,65,好人,S.bmp,Good,Yes,m,m,1,389
1050,19,right,female,5,66,坏人,C.bmp,Normal,No,n,n,1,613
1050,19,right,female,5,67,常人,T.bmp,Bad,No,n,m,0,492
1050,19,right,female,5,68,坏人,T.bmp,Bad,Yes,m,m,1,490
1050,19,right,female,5,69,坏人,S.bmp,Good,No,n,n,1,547
1050,19,right,female,5,70,坏人,T.bmp,Bad,Yes,m,m,1,444
1050,19,right,female,5,71,好人,T.bmp,Bad,No,n,n,1,618
1050,19,right,female,5,72,常人,S.bmp,Good,No,n,m,0,542
1050,19,right,female,6,1,好人,S.bmp,Good,Yes,m,n,0,517
1050,19,right,female,6,2,常人,T.bmp,Bad,No,n,n,1,471
1050,19,right,female,6,3,常人,C.bmp,Normal,Yes,m,m,1,588
1050,19,right,female,6,4,常人,S.bmp,Good,No,n,n,1,493
1050,19,right,female,6,5,坏人,T.bmp,Bad,Yes,m,m,1,589
1050,19,right,female,6,6,好人,C.bmp,Normal,No,n,n,1,621
1050,19,right,female,6,7,好人,S.bmp,Good,Yes,m,n,0,634
1050,19,right,female,6,8,坏人,C.bmp,Normal,No,n,n,1,483
1050,19,right,female,6,9,坏人,T.bmp,Bad,Yes,m,m,1,484
1050,19,right,female,6,10,坏人,S.bmp,Good,No,n,n,1,639
1050,19,right,female,6,11,常人,C.bmp,Normal,Yes,m,n,0,492
1050,19,right,female,6,12,好人,T.bmp,Bad,No,n,n,1,472
1050,19,right,female,6,13,坏人,C.bmp,Normal,No,n,m,0,544
1050,19,right,female,6,14,常人,T.bmp,Bad,No,n,n,1,556
1050,19,right,female,6,15,好人,S.bmp,Good,Yes,m,m,1,484
1050,19,right,female,6,16,常人,C.bmp,Normal,Yes,m,m,1,574
1050,19,right,female,6,17,坏人,S.bmp,Good,No,n,n,1,497
1050,19,right,female,6,18,常人,C.bmp,Normal,Yes,m,m,1,549
1050,19,right,female,6,19,常人,S.bmp,Good,No,n,n,1,594
1050,19,right,female,6,20,坏人,T.bmp,Bad,Yes,m,m,1,461
1050,19,right,female,6,21,好人,S.bmp,Good,Yes,m,m,1,510
1050,19,right,female,6,22,好人,C.bmp,Normal,No,n,n,1,454
1050,19,right,female,6,23,好人,T.bmp,Bad,No,n,n,1,520
1050,19,right,female,6,24,坏人,T.bmp,Bad,Yes,m,m,1,626
1050,19,right,female,6,25,好人,S.bmp,Good,Yes,m,m,1,693
1050,19,right,female,6,26,常人,T.bmp,Bad,No,n,n,1,462
1050,19,right,female,6,27,好人,C.bmp,Normal,No,n,n,1,709
1050,19,right,female,6,28,常人,S.bmp,Good,No,n,n,1,569
1050,19,right,female,6,29,坏人,C.bmp,Normal,No,n,m,0,454
1050,19,right,female,6,30,坏人,T.bmp,Bad,Yes,m,m,1,443
1050,19,right,female,6,31,常人,C.bmp,Normal,Yes,m,n,0,479
1050,19,right,female,6,32,好人,T.bmp,Bad,No,n,n,1,509
1050,19,right,female,6,33,坏人,T.bmp,Bad,Yes,m,m,1,501
1050,19,right,female,6,34,好人,S.bmp,Good,Yes,m,m,1,545
1050,19,right,female,6,35,坏人,S.bmp,Good,No,n,n,1,702
1050,19,right,female,6,36,常人,C.bmp,Normal,Yes,m,m,1,558
1050,19,right,female,6,37,好人,T.bmp,Bad,No,n,n,1,532
1050,19,right,female,6,38,坏人,C.bmp,Normal,No,n,n,1,509
1050,19,right,female,6,39,坏人,T.bmp,Bad,Yes,m,m,1,545
1050,19,right,female,6,40,常人,C.bmp,Normal,Yes,m,n,0,451
1050,19,right,female,6,41,常人,S.bmp,Good,No,n,n,1,443
1050,19,right,female,6,42,常人,T.bmp,Bad,No,n,n,1,417
1050,19,right,female,6,43,好人,S.bmp,Good,Yes,m,m,1,570
1050,19,right,female,6,44,坏人,S.bmp,Good,No,n,n,1,503
1050,19,right,female,6,45,坏人,T.bmp,Bad,Yes,m,,0,0
1050,19,right,female,6,46,常人,C.bmp,Normal,Yes,m,m,1,630
1050,19,right,female,6,47,好人,S.bmp,Good,Yes,m,m,1,595
1050,19,right,female,6,48,好人,C.bmp,Normal,No,n,n,1,465
1050,19,right,female,6,49,好人,T.bmp,Bad,No,n,n,1,454
1050,19,right,female,6,50,常人,C.bmp,Normal,Yes,m,m,1,499
1050,19,right,female,6,51,好人,C.bmp,Normal,No,n,n,1,474
1050,19,right,female,6,52,好人,S.bmp,Good,Yes,m,m,1,424
1050,19,right,female,6,53,坏人,S.bmp,Good,No,n,n,1,495
1050,19,right,female,6,54,常人,S.bmp,Good,No,n,n,1,415
1050,19,right,female,6,55,常人,C.bmp,Normal,Yes,m,n,0,500
1050,19,right,female,6,56,坏人,T.bmp,Bad,Yes,m,n,0,436
1050,19,right,female,6,57,好人,S.bmp,Good,Yes,m,n,0,442
1050,19,right,female,6,58,坏人,T.bmp,Bad,Yes,m,m,1,434
1050,19,right,female,6,59,坏人,C.bmp,Normal,No,n,m,0,554
1050,19,right,female,6,60,常人,T.bmp,Bad,No,n,m,0,468
1050,19,right,female,6,61,坏人,C.bmp,Normal,No,n,n,1,563
1050,19,right,female,6,62,坏人,S.bmp,Good,No,n,n,1,444
1050,19,right,female,6,63,常人,C.bmp,Normal,Yes,m,m,1,614
1050,19,right,female,6,64,好人,T.bmp,Bad,No,n,n,1,535
1050,19,right,female,6,65,坏人,T.bmp,Bad,Yes,m,m,1,529
1050,19,right,female,6,66,好人,S.bmp,Good,Yes,m,n,0,471
1050,19,right,female,6,67,好人,S.bmp,Good,Yes,m,m,1,487
1050,19,right,female,6,68,好人,C.bmp,Normal,No,n,n,1,473
1050,19,right,female,6,69,常人,S.bmp,Good,No,n,n,1,599
1050,19,right,female,6,70,坏人,T.bmp,Bad,Yes,m,m,1,466
1050,19,right,female,6,71,常人,C.bmp,Normal,Yes,m,m,1,548
1050,19,right,female,6,72,常人,T.bmp,Bad,No,n,n,1,531
1050,19,right,female,7,1,常人,C.bmp,Normal,Yes,m,m,1,764
1050,19,right,female,7,2,坏人,T.bmp,Bad,Yes,m,m,1,480
1050,19,right,female,7,3,常人,S.bmp,Good,No,n,m,0,392
1050,19,right,female,7,4,坏人,S.bmp,Good,No,n,n,1,535
1050,19,right,female,7,5,坏人,T.bmp,Bad,Yes,m,m,1,491
1050,19,right,female,7,6,好人,C.bmp,Normal,No,n,n,1,514
1050,19,right,female,7,7,好人,T.bmp,Bad,No,n,n,1,533
1050,19,right,female,7,8,好人,S.bmp,Good,Yes,m,m,1,617
1050,19,right,female,7,9,常人,T.bmp,Bad,No,n,n,1,455
1050,19,right,female,7,10,坏人,C.bmp,Normal,No,n,n,1,583
1050,19,right,female,7,11,常人,C.bmp,Normal,Yes,m,m,1,546
1050,19,right,female,7,12,好人,S.bmp,Good,Yes,m,m,1,508
1050,19,right,female,7,13,好人,S.bmp,Good,Yes,m,m,1,711
1050,19,right,female,7,14,坏人,C.bmp,Normal,No,n,n,1,471
1050,19,right,female,7,15,坏人,S.bmp,Good,No,n,n,1,822
1050,19,right,female,7,16,好人,S.bmp,Good,Yes,m,m,1,415
1050,19,right,female,7,17,常人,S.bmp,Good,No,n,n,1,547
1050,19,right,female,7,18,坏人,T.bmp,Bad,Yes,m,m,1,468
1050,19,right,female,7,19,常人,C.bmp,Normal,Yes,m,m,1,525
1050,19,right,female,7,20,常人,T.bmp,Bad,No,n,n,1,562
1050,19,right,female,7,21,好人,T.bmp,Bad,No,n,n,1,679
1050,19,right,female,7,22,常人,C.bmp,Normal,Yes,m,m,1,486
1050,19,right,female,7,23,坏人,T.bmp,Bad,Yes,m,m,1,632
1050,19,right,female,7,24,好人,C.bmp,Normal,No,n,n,1,636
1050,19,right,female,7,25,常人,T.bmp,Bad,No,n,n,1,642
1050,19,right,female,7,26,常人,C.bmp,Normal,Yes,m,m,1,464
1050,19,right,female,7,27,好人,C.bmp,Normal,No,n,n,1,465
1050,19,right,female,7,28,常人,C.bmp,Normal,Yes,m,n,0,499
1050,19,right,female,7,29,坏人,C.bmp,Normal,No,n,n,1,503
1050,19,right,female,7,30,好人,T.bmp,Bad,No,n,n,1,496
1050,19,right,female,7,31,好人,S.bmp,Good,Yes,m,m,1,642
1050,19,right,female,7,32,好人,S.bmp,Good,Yes,m,m,1,420
1050,19,right,female,7,33,坏人,T.bmp,Bad,Yes,m,n,0,398
1050,19,right,female,7,34,坏人,T.bmp,Bad,Yes,m,m,1,360
1050,19,right,female,7,35,坏人,S.bmp,Good,No,n,n,1,469
1050,19,right,female,7,36,常人,S.bmp,Good,No,n,n,1,511
1050,19,right,female,7,37,好人,C.bmp,Normal,No,n,n,1,515
1050,19,right,female,7,38,常人,T.bmp,Bad,No,n,n,1,433
1050,19,right,female,7,39,常人,C.bmp,Normal,Yes,m,m,1,401
1050,19,right,female,7,40,坏人,T.bmp,Bad,Yes,m,m,1,529
1050,19,right,female,7,41,常人,C.bmp,Normal,Yes,m,n,0,515
1050,19,right,female,7,42,坏人,T.bmp,Bad,Yes,m,m,1,439
1050,19,right,female,7,43,好人,T.bmp,Bad,No,n,n,1,574
1050,19,right,female,7,44,坏人,C.bmp,Normal,No,n,m,0,537
1050,19,right,female,7,45,坏人,S.bmp,Good,No,n,n,1,656
1050,19,right,female,7,46,常人,S.bmp,Good,No,n,n,1,866
1050,19,right,female,7,47,好人,S.bmp,Good,Yes,m,n,0,465
1050,19,right,female,7,48,好人,S.bmp,Good,Yes,m,m,1,490
1050,19,right,female,7,49,好人,C.bmp,Normal,No,n,n,1,493
1050,19,right,female,7,50,坏人,S.bmp,Good,No,n,m,0,577
1050,19,right,female,7,51,好人,T.bmp,Bad,No,n,n,1,525
1050,19,right,female,7,52,常人,C.bmp,Normal,Yes,m,m,1,570
1050,19,right,female,7,53,坏人,T.bmp,Bad,Yes,m,m,1,531
1050,19,right,female,7,54,好人,S.bmp,Good,Yes,m,m,1,538
1050,19,right,female,7,55,常人,C.bmp,Normal,Yes,m,m,1,520
1050,19,right,female,7,56,坏人,C.bmp,Normal,No,n,n,1,471
1050,19,right,female,7,57,坏人,T.bmp,Bad,Yes,m,m,1,475
1050,19,right,female,7,58,常人,S.bmp,Good,No,n,n,1,642
1050,19,right,female,7,59,常人,T.bmp,Bad,No,n,n,1,503
1050,19,right,female,7,60,好人,S.bmp,Good,Yes,m,n,0,484
1050,19,right,female,7,61,常人,C.bmp,Normal,Yes,m,m,1,440
1050,19,right,female,7,62,坏人,S.bmp,Good,No,n,n,1,562
1050,19,right,female,7,63,好人,T.bmp,Bad,No,n,n,1,597
1050,19,right,female,7,64,常人,S.bmp,Good,No,n,n,1,465
1050,19,right,female,7,65,好人,S.bmp,Good,Yes,m,n,0,510
1050,19,right,female,7,66,常人,C.bmp,Normal,Yes,m,m,1,508
1050,19,right,female,7,67,坏人,T.bmp,Bad,Yes,m,n,0,429
1050,19,right,female,7,68,坏人,T.bmp,Bad,Yes,m,m,1,370
1050,19,right,female,7,69,好人,C.bmp,Normal,No,n,n,1,552
1050,19,right,female,7,70,常人,T.bmp,Bad,No,n,n,1,512
1050,19,right,female,7,71,好人,S.bmp,Good,Yes,m,m,1,477
1050,19,right,female,7,72,坏人,C.bmp,Normal,No,n,n,1,467
1050,19,right,female,8,1,常人,T.bmp,Bad,No,n,n,1,599
1050,19,right,female,8,2,坏人,S.bmp,Good,No,n,n,1,517
1050,19,right,female,8,3,好人,C.bmp,Normal,No,n,n,1,512
1050,19,right,female,8,4,好人,S.bmp,Good,Yes,m,n,0,582
1050,19,right,female,8,5,坏人,T.bmp,Bad,Yes,m,m,1,485
1050,19,right,female,8,6,坏人,C.bmp,Normal,No,n,n,1,578
1050,19,right,female,8,7,好人,S.bmp,Good,Yes,m,m,1,550
1050,19,right,female,8,8,好人,T.bmp,Bad,No,n,n,1,581
1050,19,right,female,8,9,常人,S.bmp,Good,No,n,n,1,513
1050,19,right,female,8,10,常人,C.bmp,Normal,Yes,m,n,0,535
1050,19,right,female,8,11,常人,C.bmp,Normal,Yes,m,m,1,530
1050,19,right,female,8,12,坏人,T.bmp,Bad,Yes,m,m,1,486
1050,19,right,female,8,13,好人,C.bmp,Normal,No,n,n,1,701
1050,19,right,female,8,14,好人,T.bmp,Bad,No,n,n,1,533
1050,19,right,female,8,15,坏人,T.bmp,Bad,Yes,m,m,1,602
1050,19,right,female,8,16,常人,T.bmp,Bad,No,n,n,1,613
1050,19,right,female,8,17,坏人,S.bmp,Good,No,n,n,1,516
1050,19,right,female,8,18,常人,C.bmp,Normal,Yes,m,m,1,396
1050,19,right,female,8,19,好人,S.bmp,Good,Yes,m,m,1,447
1050,19,right,female,8,20,常人,S.bmp,Good,No,n,n,1,489
1050,19,right,female,8,21,好人,S.bmp,Good,Yes,m,m,1,529
1050,19,right,female,8,22,坏人,C.bmp,Normal,No,n,n,1,557
1050,19,right,female,8,23,常人,C.bmp,Normal,Yes,m,n,0,721
1050,19,right,female,8,24,坏人,T.bmp,Bad,Yes,m,m,1,487
1050,19,right,female,8,25,常人,S.bmp,Good,No,n,n,1,669
1050,19,right,female,8,26,好人,T.bmp,Bad,No,n,n,1,532
1050,19,right,female,8,27,坏人,T.bmp,Bad,Yes,m,m,1,556
1050,19,right,female,8,28,好人,S.bmp,Good,Yes,m,m,1,575
1050,19,right,female,8,29,常人,T.bmp,Bad,No,n,n,1,436
1050,19,right,female,8,30,坏人,T.bmp,Bad,Yes,m,m,1,496
1050,19,right,female,8,31,常人,C.bmp,Normal,Yes,m,m,1,461
1050,19,right,female,8,32,坏人,C.bmp,Normal,No,n,n,1,473
1050,19,right,female,8,33,好人,S.bmp,Good,Yes,m,m,1,495
1050,19,right,female,8,34,好人,C.bmp,Normal,No,n,n,1,558
1050,19,right,female,8,35,坏人,S.bmp,Good,No,n,m,0,459
1050,19,right,female,8,36,常人,C.bmp,Normal,Yes,m,m,1,486
1050,19,right,female,8,37,坏人,T.bmp,Bad,Yes,m,m,1,541
1050,19,right,female,8,38,常人,C.bmp,Normal,Yes,m,m,1,518
1050,19,right,female,8,39,坏人,C.bmp,Normal,No,n,n,1,519
1050,19,right,female,8,40,好人,S.bmp,Good,Yes,m,m,1,689
1050,19,right,female,8,41,常人,C.bmp,Normal,Yes,m,n,0,482
1050,19,right,female,8,42,坏人,S.bmp,Good,No,n,n,1,620
1050,19,right,female,8,43,坏人,T.bmp,Bad,Yes,m,m,1,508
1050,19,right,female,8,44,好人,C.bmp,Normal,No,n,m,0,500
1050,19,right,female,8,45,常人,T.bmp,Bad,No,n,n,1,534
1050,19,right,female,8,46,好人,T.bmp,Bad,No,n,n,1,615
1050,19,right,female,8,47,好人,S.bmp,Good,Yes,m,m,1,449
1050,19,right,female,8,48,常人,S.bmp,Good,No,n,n,1,556
1050,19,right,female,8,49,常人,T.bmp,Bad,No,n,n,1,486
1050,19,right,female,8,50,好人,T.bmp,Bad,No,n,n,1,466
1050,19,right,female,8,51,常人,C.bmp,Normal,Yes,m,m,1,524
1050,19,right,female,8,52,常人,C.bmp,Normal,Yes,m,m,1,543
1050,19,right,female,8,53,坏人,S.bmp,Good,No,n,n,1,517
1050,19,right,female,8,54,坏人,T.bmp,Bad,Yes,m,m,1,558
1050,19,right,female,8,55,好人,C.bmp,Normal,No,n,n,1,570
1050,19,right,female,8,56,坏人,C.bmp,Normal,No,n,n,1,566
1050,19,right,female,8,57,好人,S.bmp,Good,Yes,m,m,1,620
1050,19,right,female,8,58,常人,S.bmp,Good,No,n,n,1,497
1050,19,right,female,8,59,好人,S.bmp,Good,Yes,m,m,1,367
1050,19,right,female,8,60,坏人,T.bmp,Bad,Yes,m,m,1,510
1050,19,right,female,8,61,好人,T.bmp,Bad,No,n,n,1,493
1050,19,right,female,8,62,常人,S.bmp,Good,No,n,n,1,648
1050,19,right,female,8,63,好人,C.bmp,Normal,No,n,n,1,582
1050,19,right,female,8,64,好人,S.bmp,Good,Yes,m,m,1,483
1050,19,right,female,8,65,常人,T.bmp,Bad,No,n,n,1,458
1050,19,right,female,8,66,坏人,C.bmp,Normal,No,n,n,1,453
1050,19,right,female,8,67,常人,C.bmp,Normal,Yes,m,m,1,535
1050,19,right,female,8,68,坏人,T.bmp,Bad,Yes,m,m,1,550
1050,19,right,female,8,69,坏人,T.bmp,Bad,Yes,m,m,1,435
1050,19,right,female,8,70,常人,C.bmp,Normal,Yes,m,n,0,611
1050,19,right,female,8,71,坏人,S.bmp,Good,No,n,n,1,618
1050,19,right,female,8,72,好人,S.bmp,Good,Yes,m,m,1,537
1050,19,right,female,9,1,常人,C.bmp,Normal,Yes,m,m,1,545
1050,19,right,female,9,2,坏人,T.bmp,Bad,Yes,m,m,1,490
1050,19,right,female,9,3,坏人,T.bmp,Bad,Yes,m,m,1,666
1050,19,right,female,9,4,常人,S.bmp,Good,No,n,n,1,551
1050,19,right,female,9,5,常人,T.bmp,Bad,No,n,n,1,499
1050,19,right,female,9,6,好人,S.bmp,Good,Yes,m,n,0,547
1050,19,right,female,9,7,坏人,C.bmp,Normal,No,n,n,1,557
1050,19,right,female,9,8,坏人,S.bmp,Good,No,n,n,1,954
1050,19,right,female,9,9,好人,T.bmp,Bad,No,n,n,1,673
1050,19,right,female,9,10,好人,S.bmp,Good,Yes,m,m,1,589
1050,19,right,female,9,11,好人,C.bmp,Normal,No,n,n,1,593
1050,19,right,female,9,12,常人,C.bmp,Normal,Yes,m,m,1,494
1050,19,right,female,9,13,常人,C.bmp,Normal,Yes,m,m,1,488
1050,19,right,female,9,14,常人,C.bmp,Normal,Yes,m,m,1,439
1050,19,right,female,9,15,好人,S.bmp,Good,Yes,m,m,1,481
1050,19,right,female,9,16,常人,S.bmp,Good,No,n,n,1,583
1050,19,right,female,9,17,常人,T.bmp,Bad,No,n,n,1,564
1050,19,right,female,9,18,好人,C.bmp,Normal,No,n,m,0,506
1050,19,right,female,9,19,好人,S.bmp,Good,Yes,m,m,1,482
1050,19,right,female,9,20,好人,T.bmp,Bad,No,n,n,1,509
1050,19,right,female,9,21,坏人,T.bmp,Bad,Yes,m,m,1,709
1050,19,right,female,9,22,坏人,C.bmp,Normal,No,n,n,1,609
1050,19,right,female,9,23,坏人,S.bmp,Good,No,n,n,1,601
1050,19,right,female,9,24,坏人,T.bmp,Bad,Yes,m,m,1,516
1050,19,right,female,9,25,好人,C.bmp,Normal,No,n,n,1,582
1050,19,right,female,9,26,好人,T.bmp,Bad,No,n,n,1,655
1050,19,right,female,9,27,坏人,C.bmp,Normal,No,n,n,1,514
1050,19,right,female,9,28,常人,S.bmp,Good,No,n,n,1,482
1050,19,right,female,9,29,坏人,S.bmp,Good,No,n,n,1,608
1050,19,right,female,9,30,好人,S.bmp,Good,Yes,m,n,0,445
1050,19,right,female,9,31,好人,S.bmp,Good,Yes,m,m,1,612
1050,19,right,female,9,32,坏人,T.bmp,Bad,Yes,m,m,1,557
1050,19,right,female,9,33,常人,T.bmp,Bad,No,n,n,1,478
1050,19,right,female,9,34,常人,C.bmp,Normal,Yes,m,n,0,518
1050,19,right,female,9,35,坏人,T.bmp,Bad,Yes,m,m,1,533
1050,19,right,female,9,36,常人,C.bmp,Normal,Yes,m,m,1,544
1050,19,right,female,9,37,好人,S.bmp,Good,Yes,m,m,1,563
1050,19,right,female,9,38,常人,C.bmp,Normal,Yes,m,m,1,567
1050,19,right,female,9,39,坏人,S.bmp,Good,No,n,n,1,600
1050,19,right,female,9,40,常人,C.bmp,Normal,Yes,m,m,1,758
1050,19,right,female,9,41,常人,S.bmp,Good,No,n,n,1,528
1050,19,right,female,9,42,好人,S.bmp,Good,Yes,m,m,1,567
1050,19,right,female,9,43,坏人,T.bmp,Bad,Yes,m,m,1,482
1050,19,right,female,9,44,坏人,T.bmp,Bad,Yes,m,m,1,619
1050,19,right,female,9,45,常人,T.bmp,Bad,No,n,n,1,526
1050,19,right,female,9,46,好人,C.bmp,Normal,No,n,m,0,391
1050,19,right,female,9,47,坏人,C.bmp,Normal,No,n,n,1,484
1050,19,right,female,9,48,好人,T.bmp,Bad,No,n,n,1,645
1050,19,right,female,9,49,坏人,T.bmp,Bad,Yes,m,m,1,582
1050,19,right,female,9,50,好人,S.bmp,Good,Yes,m,m,1,387
1050,19,right,female,9,51,常人,C.bmp,Normal,Yes,m,m,1,456
1050,19,right,female,9,52,坏人,S.bmp,Good,No,n,n,1,551
1050,19,right,female,9,53,坏人,T.bmp,Bad,Yes,m,m,1,452
1050,19,right,female,9,54,常人,T.bmp,Bad,No,n,n,1,479
1050,19,right,female,9,55,好人,S.bmp,Good,Yes,m,m,1,558
1050,19,right,female,9,56,常人,S.bmp,Good,No,n,n,1,467
1050,19,right,female,9,57,好人,C.bmp,Normal,No,n,n,1,522
1050,19,right,female,9,58,坏人,C.bmp,Normal,No,n,n,1,470
1050,19,right,female,9,59,常人,C.bmp,Normal,Yes,m,n,0,433
1050,19,right,female,9,60,好人,T.bmp,Bad,No,n,n,1,443
1050,19,right,female,9,61,坏人,S.bmp,Good,No,n,n,1,667
1050,19,right,female,9,62,坏人,C.bmp,Normal,No,n,n,1,475
1050,19,right,female,9,63,常人,S.bmp,Good,No,n,n,1,518
1050,19,right,female,9,64,常人,C.bmp,Normal,Yes,m,m,1,455
1050,19,right,female,9,65,好人,C.bmp,Normal,No,n,n,1,545
1050,19,right,female,9,66,常人,C.bmp,Normal,Yes,m,n,0,481
1050,19,right,female,9,67,好人,T.bmp,Bad,No,n,n,1,473
1050,19,right,female,9,68,常人,T.bmp,Bad,No,n,n,1,569
1050,19,right,female,9,69,好人,S.bmp,Good,Yes,m,n,0,586
1050,19,right,female,9,70,好人,S.bmp,Good,Yes,m,m,1,462
1050,19,right,female,9,71,坏人,T.bmp,Bad,Yes,m,m,1,569
1050,19,right,female,9,72,坏人,T.bmp,Bad,Yes,m,m,1,612
1050,19,right,female,10,1,好人,T.bmp,Bad,No,n,n,1,602
1050,19,right,female,10,2,常人,C.bmp,Normal,Yes,m,m,1,461
1050,19,right,female,10,3,好人,S.bmp,Good,Yes,m,m,1,554
1050,19,right,female,10,4,常人,S.bmp,Good,No,n,m,0,561
1050,19,right,female,10,5,坏人,S.bmp,Good,No,n,m,0,593
1050,19,right,female,10,6,坏人,C.bmp,Normal,No,n,n,1,576
1050,19,right,female,10,7,好人,S.bmp,Good,Yes,m,m,1,735
1050,19,right,female,10,8,坏人,T.bmp,Bad,Yes,m,m,1,570
1050,19,right,female,10,9,坏人,T.bmp,Bad,Yes,m,n,0,545
1050,19,right,female,10,10,常人,T.bmp,Bad,No,n,n,1,528
1050,19,right,female,10,11,常人,C.bmp,Normal,Yes,m,m,1,641
1050,19,right,female,10,12,好人,C.bmp,Normal,No,n,n,1,521
1050,19,right,female,10,13,坏人,T.bmp,Bad,Yes,m,m,1,492
1050,19,right,female,10,14,坏人,T.bmp,Bad,Yes,m,m,1,427
1050,19,right,female,10,15,好人,S.bmp,Good,Yes,m,m,1,615
1050,19,right,female,10,16,好人,S.bmp,Good,Yes,m,m,1,524
1050,19,right,female,10,17,常人,C.bmp,Normal,Yes,m,m,1,590
1050,19,right,female,10,18,好人,C.bmp,Normal,No,n,n,1,612
1050,19,right,female,10,19,常人,C.bmp,Normal,Yes,m,m,1,813
1050,19,right,female,10,20,常人,S.bmp,Good,No,n,n,1,523
1050,19,right,female,10,21,常人,T.bmp,Bad,No,n,n,1,545
1050,19,right,female,10,22,好人,T.bmp,Bad,No,n,n,1,471
1050,19,right,female,10,23,坏人,C.bmp,Normal,No,n,n,1,600
1050,19,right,female,10,24,坏人,S.bmp,Good,No,n,n,1,508
1050,19,right,female,10,25,常人,C.bmp,Normal,Yes,m,m,1,557
1050,19,right,female,10,26,常人,T.bmp,Bad,No,n,n,1,504
1050,19,right,female,10,27,坏人,T.bmp,Bad,Yes,m,m,1,518
1050,19,right,female,10,28,好人,C.bmp,Normal,No,n,n,1,605
1050,19,right,female,10,29,坏人,S.bmp,Good,No,n,n,1,737
1050,19,right,female,10,30,好人,T.bmp,Bad,No,n,m,0,465
1050,19,right,female,10,31,常人,C.bmp,Normal,Yes,m,m,1,504
1050,19,right,female,10,32,坏人,C.bmp,Normal,No,n,n,1,502
1050,19,right,female,10,33,常人,S.bmp,Good,No,n,n,1,595
1050,19,right,female,10,34,好人,S.bmp,Good,Yes,m,m,1,552
1050,19,right,female,10,35,好人,S.bmp,Good,Yes,m,m,1,439
1050,19,right,female,10,36,坏人,T.bmp,Bad,Yes,m,m,1,562
1050,19,right,female,10,37,坏人,T.bmp,Bad,Yes,m,m,1,495
1050,19,right,female,10,38,常人,C.bmp,Normal,Yes,m,m,1,671
1050,19,right,female,10,39,常人,T.bmp,Bad,No,n,n,1,532
1050,19,right,female,10,40,坏人,T.bmp,Bad,Yes,m,m,1,563
1050,19,right,female,10,41,坏人,C.bmp,Normal,No,n,n,1,516
1050,19,right,female,10,42,好人,S.bmp,Good,Yes,m,m,1,532
1050,19,right,female,10,43,常人,S.bmp,Good,No,n,n,1,473
1050,19,right,female,10,44,坏人,S.bmp,Good,No,n,n,1,611
1050,19,right,female,10,45,好人,C.bmp,Normal,No,n,n,1,496
1050,19,right,female,10,46,好人,S.bmp,Good,Yes,m,m,1,537
1050,19,right,female,10,47,常人,C.bmp,Normal,Yes,m,n,0,478
1050,19,right,female,10,48,好人,T.bmp,Bad,No,n,n,1,556
1050,19,right,female,10,49,坏人,T.bmp,Bad,Yes,m,m,1,504
1050,19,right,female,10,50,常人,C.bmp,Normal,Yes,m,n,0,573
1050,19,right,female,10,51,坏人,S.bmp,Good,No,n,n,1,561
1050,19,right,female,10,52,常人,C.bmp,Normal,Yes,m,m,1,432
1050,19,right,female,10,53,好人,S.bmp,Good,Yes,m,m,1,492
1050,19,right,female,10,54,好人,T.bmp,Bad,No,n,n,1,532
1050,19,right,female,10,55,坏人,C.bmp,Normal,No,n,m,0,468
1050,19,right,female,10,56,常人,S.bmp,Good,No,n,n,1,581
1050,19,right,female,10,57,坏人,T.bmp,Bad,Yes,m,m,1,562
1050,19,right,female,10,58,常人,T.bmp,Bad,No,n,n,1,548
1050,19,right,female,10,59,好人,C.bmp,Normal,No,n,n,1,542
1050,19,right,female,10,60,好人,S.bmp,Good,Yes,m,m,1,419
1050,19,right,female,10,61,常人,T.bmp,Bad,No,n,n,1,461
1050,19,right,female,10,62,坏人,S.bmp,Good,No,n,n,1,530
1050,19,right,female,10,63,坏人,T.bmp,Bad,Yes,m,m,1,474
1050,19,right,female,10,64,好人,C.bmp,Normal,No,n,n,1,490
1050,19,right,female,10,65,好人,S.bmp,Good,Yes,m,m,1,557
1050,19,right,female,10,66,坏人,C.bmp,Normal,No,n,n,1,650
1050,19,right,female,10,67,坏人,T.bmp,Bad,Yes,m,m,1,467
1050,19,right,female,10,68,常人,S.bmp,Good,No,n,n,1,417
1050,19,right,female,10,69,好人,S.bmp,Good,Yes,m,n,0,549
1050,19,right,female,10,70,好人,T.bmp,Bad,No,n,n,1,488
1050,19,right,female,10,71,常人,C.bmp,Normal,Yes,m,n,0,494
1050,19,right,female,10,72,常人,C.bmp,Normal,Yes,m,m,1,454
1051,19,right,female,,1,坏人,C.bmp,Bad,Yes,n,,0,0
1051,19,right,female,,2,好人,T.bmp,Good,Yes,n,n,1,456
1051,19,right,female,,3,常人,S.bmp,Normal,Yes,n,n,1,602
1051,19,right,female,,4,常人,C.bmp,Bad,No,m,m,1,552
1051,19,right,female,,5,好人,C.bmp,Bad,No,m,m,1,581
1051,19,right,female,,6,坏人,S.bmp,Normal,No,m,m,1,610
1051,19,right,female,,7,好人,S.bmp,Normal,No,m,m,1,795
1051,19,right,female,,8,常人,T.bmp,Good,No,m,m,1,667
1051,19,right,female,,9,常人,S.bmp,Normal,Yes,n,n,1,735
1051,19,right,female,,10,好人,T.bmp,Good,Yes,n,n,1,774
1051,19,right,female,,11,坏人,T.bmp,Good,No,m,m,1,647
1051,19,right,female,,12,坏人,C.bmp,Bad,Yes,n,m,0,717
1051,19,right,female,,13,坏人,T.bmp,Good,No,m,,0,0
1051,19,right,female,,14,好人,T.bmp,Good,Yes,n,n,1,668
1051,19,right,female,,15,好人,T.bmp,Good,Yes,n,n,1,697
1051,19,right,female,,16,常人,S.bmp,Normal,Yes,n,n,1,686
1051,19,right,female,,17,常人,S.bmp,Normal,Yes,n,n,1,637
1051,19,right,female,,18,坏人,S.bmp,Normal,No,m,m,1,705
1051,19,right,female,,19,常人,T.bmp,Good,No,m,m,1,655
1051,19,right,female,,20,坏人,C.bmp,Bad,Yes,n,n,1,918
1051,19,right,female,,21,坏人,C.bmp,Bad,Yes,n,m,0,674
1051,19,right,female,,22,好人,S.bmp,Normal,No,m,m,1,858
1051,19,right,female,,23,常人,C.bmp,Bad,No,m,m,1,770
1051,19,right,female,,24,好人,C.bmp,Bad,No,m,m,1,839
1051,19,right,female,1,1,好人,C.bmp,Bad,No,m,,0,0
1051,19,right,female,1,2,坏人,T.bmp,Good,No,m,,0,0
1051,19,right,female,1,3,常人,S.bmp,Normal,Yes,n,n,1,671
1051,19,right,female,1,4,坏人,S.bmp,Normal,No,m,m,1,818
1051,19,right,female,1,5,坏人,C.bmp,Bad,Yes,n,n,1,779
1051,19,right,female,1,6,坏人,C.bmp,Bad,Yes,n,n,1,780
1051,19,right,female,1,7,常人,T.bmp,Good,No,m,m,1,809
1051,19,right,female,1,8,好人,S.bmp,Normal,No,m,m,1,693
1051,19,right,female,1,9,好人,T.bmp,Good,Yes,n,n,1,604
1051,19,right,female,1,10,好人,T.bmp,Good,Yes,n,n,1,672
1051,19,right,female,1,11,常人,S.bmp,Normal,Yes,n,n,1,665
1051,19,right,female,1,12,常人,C.bmp,Bad,No,m,m,1,691
1051,19,right,female,1,13,常人,S.bmp,Normal,Yes,n,n,1,993
1051,19,right,female,1,14,常人,C.bmp,Bad,No,m,m,1,828
1051,19,right,female,1,15,坏人,T.bmp,Good,No,m,m,1,779
1051,19,right,female,1,16,坏人,C.bmp,Bad,Yes,n,m,0,925
1051,19,right,female,1,17,好人,T.bmp,Good,Yes,n,n,1,877
1051,19,right,female,1,18,好人,S.bmp,Normal,No,m,m,1,711
1051,19,right,female,1,19,常人,T.bmp,Good,No,m,m,1,790
1051,19,right,female,1,20,好人,T.bmp,Good,Yes,n,n,1,1092
1051,19,right,female,1,21,坏人,C.bmp,Bad,Yes,n,n,1,851
1051,19,right,female,1,22,坏人,S.bmp,Normal,No,m,m,1,681
1051,19,right,female,1,23,常人,S.bmp,Normal,Yes,n,n,1,671
1051,19,right,female,1,24,好人,C.bmp,Bad,No,m,m,1,819
1051,19,right,female,1,25,坏人,T.bmp,Good,No,m,m,1,768
1051,19,right,female,1,26,好人,C.bmp,Bad,No,m,n,0,758
1051,19,right,female,1,27,常人,S.bmp,Normal,Yes,n,n,1,787
1051,19,right,female,1,28,好人,T.bmp,Good,Yes,n,n,1,737
1051,19,right,female,1,29,好人,S.bmp,Normal,No,m,m,1,689
1051,19,right,female,1,30,坏人,C.bmp,Bad,Yes,n,n,1,1070
1051,19,right,female,1,31,坏人,S.bmp,Normal,No,m,m,1,792
1051,19,right,female,1,32,常人,S.bmp,Normal,Yes,n,n,1,776
1051,19,right,female,1,33,坏人,C.bmp,Bad,Yes,n,n,1,1039
1051,19,right,female,1,34,好人,T.bmp,Good,Yes,n,m,0,565
1051,19,right,female,1,35,常人,C.bmp,Bad,No,m,m,1,589
1051,19,right,female,1,36,常人,T.bmp,Good,No,m,n,0,855
1051,19,right,female,1,37,坏人,C.bmp,Bad,Yes,n,n,1,725
1051,19,right,female,1,38,坏人,S.bmp,Normal,No,m,m,1,715
1051,19,right,female,1,39,常人,C.bmp,Bad,No,m,m,1,744
1051,19,right,female,1,40,好人,T.bmp,Good,Yes,n,n,1,666
1051,19,right,female,1,41,常人,S.bmp,Normal,Yes,n,n,1,618
1051,19,right,female,1,42,坏人,C.bmp,Bad,Yes,n,n,1,647
1051,19,right,female,1,43,好人,T.bmp,Good,Yes,n,n,1,676
1051,19,right,female,1,44,好人,C.bmp,Bad,No,m,m,1,783
1051,19,right,female,1,45,坏人,T.bmp,Good,No,m,m,1,656
1051,19,right,female,1,46,常人,S.bmp,Normal,Yes,n,n,1,489
1051,19,right,female,1,47,好人,S.bmp,Normal,No,m,m,1,674
1051,19,right,female,1,48,常人,T.bmp,Good,No,m,m,1,744
1051,19,right,female,1,49,常人,S.bmp,Normal,Yes,n,n,1,704
1051,19,right,female,1,50,坏人,T.bmp,Good,No,m,m,1,733
1051,19,right,female,1,51,坏人,S.bmp,Normal,No,m,m,1,684
1051,19,right,female,1,52,常人,C.bmp,Bad,No,m,m,1,752
1051,19,right,female,1,53,好人,T.bmp,Good,Yes,n,n,1,663
1051,19,right,female,1,54,坏人,C.bmp,Bad,Yes,n,m,0,654
1051,19,right,female,1,55,常人,T.bmp,Good,No,m,n,0,422
1051,19,right,female,1,56,好人,T.bmp,Good,Yes,n,n,1,450
1051,19,right,female,1,57,常人,S.bmp,Normal,Yes,n,n,1,439
1051,19,right,female,1,58,好人,C.bmp,Bad,No,m,n,0,390
1051,19,right,female,1,59,坏人,C.bmp,Bad,Yes,n,m,0,575
1051,19,right,female,1,60,好人,S.bmp,Normal,No,m,m,1,643
1051,19,right,female,1,61,坏人,T.bmp,Good,No,m,n,0,672
1051,19,right,female,1,62,好人,T.bmp,Good,Yes,n,n,1,545
1051,19,right,female,1,63,常人,S.bmp,Normal,Yes,n,n,1,772
1051,19,right,female,1,64,常人,S.bmp,Normal,Yes,n,n,1,642
1051,19,right,female,1,65,好人,T.bmp,Good,Yes,n,n,1,670
1051,19,right,female,1,66,好人,C.bmp,Bad,No,m,m,1,778
1051,19,right,female,1,67,坏人,C.bmp,Bad,Yes,n,m,0,1041
1051,19,right,female,1,68,坏人,S.bmp,Normal,No,m,n,0,290
1051,19,right,female,1,69,好人,S.bmp,Normal,No,m,m,1,592
1051,19,right,female,1,70,坏人,C.bmp,Bad,Yes,n,n,1,699
1051,19,right,female,1,71,常人,C.bmp,Bad,No,m,m,1,649
1051,19,right,female,1,72,常人,T.bmp,Good,No,m,m,1,795
1051,19,right,female,2,1,好人,C.bmp,Bad,No,m,,0,0
1051,19,right,female,2,2,坏人,C.bmp,Bad,Yes,n,,0,0
1051,19,right,female,2,3,坏人,S.bmp,Normal,No,m,m,1,802
1051,19,right,female,2,4,好人,S.bmp,Normal,No,m,,0,0
1051,19,right,female,2,5,常人,T.bmp,Good,No,m,m,1,822
1051,19,right,female,2,6,常人,C.bmp,Bad,No,m,m,1,705
1051,19,right,female,2,7,坏人,T.bmp,Good,No,m,m,1,929
1051,19,right,female,2,8,常人,S.bmp,Normal,Yes,n,n,1,528
1051,19,right,female,2,9,坏人,C.bmp,Bad,Yes,n,m,0,684
1051,19,right,female,2,10,常人,S.bmp,Normal,Yes,n,n,1,791
1051,19,right,female,2,11,好人,T.bmp,Good,Yes,n,n,1,586
1051,19,right,female,2,12,好人,T.bmp,Good,Yes,n,n,1,653
1051,19,right,female,2,13,常人,T.bmp,Good,No,m,m,1,643
1051,19,right,female,2,14,坏人,C.bmp,Bad,Yes,n,n,1,710
1051,19,right,female,2,15,好人,C.bmp,Bad,No,m,m,1,700
1051,19,right,female,2,16,好人,S.bmp,Normal,No,m,m,1,690
1051,19,right,female,2,17,常人,S.bmp,Normal,Yes,n,n,1,680
1051,19,right,female,2,18,坏人,C.bmp,Bad,Yes,n,n,1,1021
1051,19,right,female,2,19,常人,S.bmp,Normal,Yes,n,n,1,827
1051,19,right,female,2,20,常人,C.bmp,Bad,No,m,m,1,711
1051,19,right,female,2,21,好人,T.bmp,Good,Yes,n,n,1,624
1051,19,right,female,2,22,坏人,T.bmp,Good,No,m,m,1,728
1051,19,right,female,2,23,坏人,S.bmp,Normal,No,m,m,1,640
1051,19,right,female,2,24,好人,T.bmp,Good,Yes,n,n,1,708
1051,19,right,female,2,25,好人,S.bmp,Normal,No,m,m,1,697
1051,19,right,female,2,26,坏人,T.bmp,Good,No,m,m,1,848
1051,19,right,female,2,27,好人,T.bmp,Good,Yes,n,n,1,638
1051,19,right,female,2,28,坏人,S.bmp,Normal,No,m,m,1,666
1051,19,right,female,2,29,常人,S.bmp,Normal,Yes,n,n,1,656
1051,19,right,female,2,30,坏人,C.bmp,Bad,Yes,n,m,0,647
1051,19,right,female,2,31,坏人,C.bmp,Bad,Yes,n,n,1,402
1051,19,right,female,2,32,常人,S.bmp,Normal,Yes,n,n,1,548
1051,19,right,female,2,33,常人,T.bmp,Good,No,m,m,1,772
1051,19,right,female,2,34,常人,C.bmp,Bad,No,m,n,0,800
1051,19,right,female,2,35,好人,T.bmp,Good,Yes,n,n,1,567
1051,19,right,female,2,36,好人,C.bmp,Bad,No,m,m,1,634
1051,19,right,female,2,37,好人,T.bmp,Good,Yes,n,n,1,702
1051,19,right,female,2,38,坏人,S.bmp,Normal,No,m,m,1,702
1051,19,right,female,2,39,常人,T.bmp,Good,No,m,m,1,731
1051,19,right,female,2,40,好人,S.bmp,Normal,No,m,m,1,838
1051,19,right,female,2,41,好人,T.bmp,Good,Yes,n,n,1,515
1051,19,right,female,2,42,常人,S.bmp,Normal,Yes,n,n,1,701
1051,19,right,female,2,43,常人,S.bmp,Normal,Yes,n,n,1,730
1051,19,right,female,2,44,好人,C.bmp,Bad,No,m,n,0,680
1051,19,right,female,2,45,常人,C.bmp,Bad,No,m,n,0,397
1051,19,right,female,2,46,坏人,C.bmp,Bad,Yes,n,n,1,621
1051,19,right,female,2,47,坏人,C.bmp,Bad,Yes,n,n,1,610
1051,19,right,female,2,48,坏人,T.bmp,Good,No,m,m,1,561
1051,19,right,female,2,49,坏人,C.bmp,Bad,Yes,n,n,1,629
1051,19,right,female,2,50,常人,C.bmp,Bad,No,m,m,1,657
1051,19,right,female,2,51,好人,C.bmp,Bad,No,m,m,1,608
1051,19,right,female,2,52,常人,T.bmp,Good,No,m,n,0,562
1051,19,right,female,2,53,好人,T.bmp,Good,Yes,n,n,1,665
1051,19,right,female,2,54,坏人,S.bmp,Normal,No,m,m,1,733
1051,19,right,female,2,55,常人,S.bmp,Normal,Yes,n,n,1,685
1051,19,right,female,2,56,常人,S.bmp,Normal,Yes,n,n,1,518
1051,19,right,female,2,57,好人,T.bmp,Good,Yes,n,n,1,781
1051,19,right,female,2,58,坏人,C.bmp,Bad,Yes,n,n,1,821
1051,19,right,female,2,59,坏人,T.bmp,Good,No,m,m,1,694
1051,19,right,female,2,60,好人,S.bmp,Normal,No,m,m,1,644
1051,19,right,female,2,61,坏人,C.bmp,Bad,Yes,n,n,1,645
1051,19,right,female,2,62,坏人,C.bmp,Bad,Yes,n,m,0,791
1051,19,right,female,2,63,常人,C.bmp,Bad,No,m,m,1,624
1051,19,right,female,2,64,坏人,T.bmp,Good,No,m,n,0,536
1051,19,right,female,2,65,好人,S.bmp,Normal,No,m,m,1,682
1051,19,right,female,2,66,好人,C.bmp,Bad,No,m,m,1,750
1051,19,right,female,2,67,常人,S.bmp,Normal,Yes,n,n,1,662
1051,19,right,female,2,68,好人,T.bmp,Good,Yes,n,n,1,574
1051,19,right,female,2,69,坏人,S.bmp,Normal,No,m,m,1,574
1051,19,right,female,2,70,常人,S.bmp,Normal,Yes,n,n,1,642
1051,19,right,female,2,71,常人,T.bmp,Good,No,m,m,1,905
1051,19,right,female,2,72,好人,T.bmp,Good,Yes,n,n,1,583
1051,19,right,female,3,1,常人,S.bmp,Normal,Yes,n,n,1,648
1051,19,right,female,3,2,常人,C.bmp,Bad,No,m,m,1,1028
1051,19,right,female,3,3,常人,S.bmp,Normal,Yes,n,n,1,705
1051,19,right,female,3,4,坏人,T.bmp,Good,No,m,n,0,706
1051,19,right,female,3,5,坏人,S.bmp,Normal,No,m,m,1,736
1051,19,right,female,3,6,好人,T.bmp,Good,Yes,n,n,1,725
1051,19,right,female,3,7,常人,T.bmp,Good,No,m,,0,0
1051,19,right,female,3,8,坏人,C.bmp,Bad,Yes,n,m,0,627
1051,19,right,female,3,9,坏人,C.bmp,Bad,Yes,n,n,1,616
1051,19,right,female,3,10,好人,T.bmp,Good,Yes,n,m,0,762
1051,19,right,female,3,11,好人,S.bmp,Normal,No,m,m,1,791
1051,19,right,female,3,12,好人,C.bmp,Bad,No,m,n,0,791
1051,19,right,female,3,13,坏人,C.bmp,Bad,Yes,n,n,1,1015
1051,19,right,female,3,14,好人,T.bmp,Good,Yes,n,n,1,653
1051,19,right,female,3,15,常人,C.bmp,Bad,No,m,n,0,799
1051,19,right,female,3,16,好人,T.bmp,Good,Yes,n,n,1,438
1051,19,right,female,3,17,好人,S.bmp,Normal,No,m,m,1,818
1051,19,right,female,3,18,坏人,S.bmp,Normal,No,m,n,0,926
1051,19,right,female,3,19,好人,C.bmp,Bad,No,m,n,0,692
1051,19,right,female,3,20,常人,S.bmp,Normal,Yes,n,n,1,486
1051,19,right,female,3,21,常人,S.bmp,Normal,Yes,n,n,1,554
1051,19,right,female,3,22,常人,T.bmp,Good,No,m,m,1,781
1051,19,right,female,3,23,坏人,C.bmp,Bad,Yes,n,n,1,612
1051,19,right,female,3,24,坏人,T.bmp,Good,No,m,m,1,680
1051,19,right,female,3,25,好人,T.bmp,Good,Yes,n,n,1,524
1051,19,right,female,3,26,坏人,C.bmp,Bad,Yes,n,n,1,748
1051,19,right,female,3,27,好人,S.bmp,Normal,No,m,m,1,620
1051,19,right,female,3,28,常人,C.bmp,Bad,No,m,m,1,612
1051,19,right,female,3,29,常人,S.bmp,Normal,Yes,n,n,1,717
1051,19,right,female,3,30,常人,T.bmp,Good,No,m,m,1,629
1051,19,right,female,3,31,坏人,C.bmp,Bad,Yes,n,m,0,736
1051,19,right,female,3,32,坏人,S.bmp,Normal,No,m,m,1,726
1051,19,right,female,3,33,好人,C.bmp,Bad,No,m,n,0,638
1051,19,right,female,3,34,坏人,T.bmp,Good,No,m,n,0,522
1051,19,right,female,3,35,常人,S.bmp,Normal,Yes,n,n,1,590
1051,19,right,female,3,36,好人,T.bmp,Good,Yes,n,m,0,712
1051,19,right,female,3,37,常人,S.bmp,Normal,Yes,n,n,1,697
1051,19,right,female,3,38,坏人,S.bmp,Normal,No,m,m,1,570
1051,19,right,female,3,39,好人,S.bmp,Normal,No,m,m,1,677
1051,19,right,female,3,40,常人,C.bmp,Bad,No,m,m,1,785
1051,19,right,female,3,41,常人,T.bmp,Good,No,m,m,1,656
1051,19,right,female,3,42,坏人,C.bmp,Bad,Yes,n,n,1,724
1051,19,right,female,3,43,好人,T.bmp,Good,Yes,n,n,1,754
1051,19,right,female,3,44,好人,C.bmp,Bad,No,m,n,0,783
1051,19,right,female,3,45,常人,S.bmp,Normal,Yes,n,n,1,549
1051,19,right,female,3,46,坏人,C.bmp,Bad,Yes,n,m,0,695
1051,19,right,female,3,47,好人,T.bmp,Good,Yes,n,n,1,358
1051,19,right,female,3,48,坏人,T.bmp,Good,No,m,n,0,540
1051,19,right,female,3,49,好人,S.bmp,Normal,No,m,n,0,451
1051,19,right,female,3,50,常人,T.bmp,Good,No,m,m,1,714
1051,19,right,female,3,51,坏人,T.bmp,Good,No,m,n,0,704
1051,19,right,female,3,52,常人,S.bmp,Normal,Yes,n,m,0,1045
1051,19,right,female,3,53,坏人,C.bmp,Bad,Yes,n,n,1,450
1051,19,right,female,3,54,好人,T.bmp,Good,Yes,n,n,1,634
1051,19,right,female,3,55,坏人,S.bmp,Normal,No,m,m,1,664
1051,19,right,female,3,56,好人,C.bmp,Bad,No,m,m,1,927
1051,19,right,female,3,57,坏人,C.bmp,Bad,Yes,n,n,1,839
1051,19,right,female,3,58,常人,S.bmp,Normal,Yes,n,n,1,594
1051,19,right,female,3,59,好人,T.bmp,Good,Yes,n,n,1,829
1051,19,right,female,3,60,常人,C.bmp,Bad,No,m,m,1,585
1051,19,right,female,3,61,常人,S.bmp,Normal,Yes,n,n,1,653
1051,19,right,female,3,62,常人,S.bmp,Normal,Yes,n,n,1,642
1051,19,right,female,3,63,好人,T.bmp,Good,Yes,n,n,1,593
1051,19,right,female,3,64,坏人,C.bmp,Bad,Yes,n,n,1,739
1051,19,right,female,3,65,坏人,T.bmp,Good,No,m,n,0,494
1051,19,right,female,3,66,坏人,S.bmp,Normal,No,m,n,0,406
1051,19,right,female,3,67,好人,S.bmp,Normal,No,m,n,0,591
1051,19,right,female,3,68,常人,T.bmp,Good,No,m,m,1,699
1051,19,right,female,3,69,常人,C.bmp,Bad,No,m,m,1,727
1051,19,right,female,3,70,好人,T.bmp,Good,Yes,n,n,1,678
1051,19,right,female,3,71,坏人,C.bmp,Bad,Yes,n,m,0,590
1051,19,right,female,3,72,好人,C.bmp,Bad,No,m,m,1,619
1051,19,right,female,4,1,好人,C.bmp,Bad,No,m,,0,0
1051,19,right,female,4,2,常人,S.bmp,Normal,Yes,n,n,1,716
1051,19,right,female,4,3,常人,T.bmp,Good,No,m,n,0,704
1051,19,right,female,4,4,坏人,C.bmp,Bad,Yes,n,n,1,540
1051,19,right,female,4,5,坏人,S.bmp,Normal,No,m,m,1,683
1051,19,right,female,4,6,常人,S.bmp,Normal,Yes,n,n,1,674
1051,19,right,female,4,7,好人,T.bmp,Good,Yes,n,n,1,625
1051,19,right,female,4,8,好人,T.bmp,Good,Yes,n,n,1,656
1051,19,right,female,4,9,好人,S.bmp,Normal,No,m,m,1,604
1051,19,right,female,4,10,坏人,C.bmp,Bad,Yes,n,m,0,828
1051,19,right,female,4,11,坏人,T.bmp,Good,No,m,m,1,829
1051,19,right,female,4,12,常人,C.bmp,Bad,No,m,n,0,897
1051,19,right,female,4,13,好人,T.bmp,Good,Yes,n,n,1,574
1051,19,right,female,4,14,常人,C.bmp,Bad,No,m,n,0,876
1051,19,right,female,4,15,坏人,C.bmp,Bad,Yes,n,n,1,827
1051,19,right,female,4,16,常人,S.bmp,Normal,Yes,n,n,1,738
1051,19,right,female,4,17,好人,T.bmp,Good,Yes,n,n,1,924
1051,19,right,female,4,18,常人,T.bmp,Good,No,m,,0,0
1051,19,right,female,4,19,好人,C.bmp,Bad,No,m,n,0,318
1051,19,right,female,4,20,常人,S.bmp,Normal,Yes,n,,0,0
1051,19,right,female,4,21,坏人,S.bmp,Normal,No,m,,0,0
1051,19,right,female,4,22,坏人,T.bmp,Good,No,m,,0,0
1051,19,right,female,4,23,坏人,C.bmp,Bad,Yes,n,,0,0
1051,19,right,female,4,24,好人,S.bmp,Normal,No,m,,0,0
1051,19,right,female,4,25,好人,C.bmp,Bad,No,m,,0,0
1051,19,right,female,4,26,常人,S.bmp,Normal,Yes,n,,0,0
1051,19,right,female,4,27,常人,T.bmp,Good,No,m,,0,0
1051,19,right,female,4,28,坏人,T.bmp,Good,No,m,,0,0
1051,19,right,female,4,29,常人,S.bmp,Normal,Yes,n,,0,0
1051,19,right,female,4,30,坏人,S.bmp,Normal,No,m,,0,0
1051,19,right,female,4,31,常人,C.bmp,Bad,No,m,n,0,790
1051,19,right,female,4,32,坏人,C.bmp,Bad,Yes,n,n,1,701
1051,19,right,female,4,33,好人,T.bmp,Good,Yes,n,n,1,652
1051,19,right,female,4,34,好人,S.bmp,Normal,No,m,m,1,681
1051,19,right,female,4,35,好人,T.bmp,Good,Yes,n,n,1,518
1051,19,right,female,4,36,坏人,C.bmp,Bad,Yes,n,n,1,582
1051,19,right,female,4,37,常人,S.bmp,Normal,Yes,n,n,1,611
1051,19,right,female,4,38,常人,S.bmp,Normal,Yes,n,n,1,447
1051,19,right,female,4,39,坏人,C.bmp,Bad,Yes,n,n,1,517
1051,19,right,female,4,40,好人,C.bmp,Bad,No,m,m,1,621
1051,19,right,female,4,41,常人,T.bmp,Good,No,m,m,1,727
1051,19,right,female,4,42,常人,C.bmp,Bad,No,m,m,1,716
1051,19,right,female,4,43,好人,T.bmp,Good,Yes,n,n,1,550
1051,19,right,female,4,44,坏人,C.bmp,Bad,Yes,n,n,1,737
1051,19,right,female,4,45,坏人,T.bmp,Good,No,m,m,1,648
1051,19,right,female,4,46,好人,S.bmp,Normal,No,m,m,1,715
1051,19,right,female,4,47,坏人,S.bmp,Normal,No,m,m,1,821
1051,19,right,female,4,48,好人,T.bmp,Good,Yes,n,n,1,472
1051,19,right,female,4,49,常人,S.bmp,Normal,Yes,n,m,0,539
1051,19,right,female,4,50,常人,C.bmp,Bad,No,m,m,1,646
1051,19,right,female,4,51,好人,T.bmp,Good,Yes,n,n,1,597
1051,19,right,female,4,52,好人,S.bmp,Normal,No,m,m,1,630
1051,19,right,female,4,53,坏人,S.bmp,Normal,No,m,m,1,694
1051,19,right,female,4,54,好人,T.bmp,Good,Yes,n,n,1,723
1051,19,right,female,4,55,好人,C.bmp,Bad,No,m,n,0,673
1051,19,right,female,4,56,坏人,T.bmp,Good,No,m,m,1,898
1051,19,right,female,4,57,常人,S.bmp,Normal,Yes,n,n,1,771
1051,19,right,female,4,58,坏人,C.bmp,Bad,Yes,n,n,1,722
1051,19,right,female,4,59,坏人,C.bmp,Bad,Yes,n,n,1,633
1051,19,right,female,4,60,常人,T.bmp,Good,No,m,m,1,662
1051,19,right,female,4,61,常人,S.bmp,Normal,Yes,n,n,1,574
1051,19,right,female,4,62,好人,T.bmp,Good,Yes,n,n,1,603
1051,19,right,female,4,63,坏人,T.bmp,Good,No,m,n,0,553
1051,19,right,female,4,64,常人,C.bmp,Bad,No,m,m,1,623
1051,19,right,female,4,65,坏人,C.bmp,Bad,Yes,n,n,1,808
1051,19,right,female,4,66,常人,T.bmp,Good,No,m,m,1,641
1051,19,right,female,4,67,坏人,C.bmp,Bad,Yes,n,m,0,748
1051,19,right,female,4,68,好人,S.bmp,Normal,No,m,n,0,507
1051,19,right,female,4,69,常人,S.bmp,Normal,Yes,n,n,1,534
1051,19,right,female,4,70,坏人,S.bmp,Normal,No,m,m,1,563
1051,19,right,female,4,71,好人,C.bmp,Bad,No,m,m,1,797
1051,19,right,female,4,72,好人,T.bmp,Good,Yes,n,n,1,592
1051,19,right,female,5,1,常人,C.bmp,Bad,No,m,m,1,854
1051,19,right,female,5,2,常人,S.bmp,Normal,Yes,n,n,1,620
1051,19,right,female,5,3,好人,T.bmp,Good,Yes,n,n,1,610
1051,19,right,female,5,4,好人,C.bmp,Bad,No,m,m,1,837
1051,19,right,female,5,5,坏人,S.bmp,Normal,No,m,m,1,746
1051,19,right,female,5,6,好人,S.bmp,Normal,No,m,m,1,814
1051,19,right,female,5,7,坏人,T.bmp,Good,No,m,m,1,777
1051,19,right,female,5,8,常人,T.bmp,Good,No,m,m,1,688
1051,19,right,female,5,9,常人,S.bmp,Normal,Yes,n,n,1,561
1051,19,right,female,5,10,坏人,C.bmp,Bad,Yes,n,m,0,863
1051,19,right,female,5,11,好人,T.bmp,Good,Yes,n,n,1,580
1051,19,right,female,5,12,坏人,C.bmp,Bad,Yes,n,n,1,648
1051,19,right,female,5,13,坏人,S.bmp,Normal,No,m,m,1,602
1051,19,right,female,5,14,常人,S.bmp,Normal,Yes,n,n,1,588
1051,19,right,female,5,15,好人,T.bmp,Good,Yes,n,n,1,589
1051,19,right,female,5,16,常人,C.bmp,Bad,No,m,m,1,540
1051,19,right,female,5,17,坏人,C.bmp,Bad,Yes,n,n,1,568
1051,19,right,female,5,18,坏人,C.bmp,Bad,Yes,n,n,1,558
1051,19,right,female,5,19,好人,T.bmp,Good,Yes,n,n,1,666
1051,19,right,female,5,20,常人,T.bmp,Good,No,m,m,1,656
1051,19,right,female,5,21,常人,S.bmp,Normal,Yes,n,n,1,685
1051,19,right,female,5,22,好人,S.bmp,Normal,No,m,m,1,675
1051,19,right,female,5,23,好人,C.bmp,Bad,No,m,n,0,909
1051,19,right,female,5,24,坏人,T.bmp,Good,No,m,m,1,833
1051,19,right,female,5,25,好人,T.bmp,Good,Yes,n,n,1,589
1051,19,right,female,5,26,好人,T.bmp,Good,Yes,n,n,1,579
1051,19,right,female,5,27,常人,S.bmp,Normal,Yes,n,n,1,568
1051,19,right,female,5,28,坏人,T.bmp,Good,No,m,m,1,558
1051,19,right,female,5,29,好人,C.bmp,Bad,No,m,n,0,509
1051,19,right,female,5,30,常人,T.bmp,Good,No,m,m,1,657
1051,19,right,female,5,31,好人,S.bmp,Normal,No,m,n,0,879
1051,19,right,female,5,32,坏人,C.bmp,Bad,Yes,n,n,1,753
1051,19,right,female,5,33,常人,C.bmp,Bad,No,m,m,1,899
1051,19,right,female,5,34,常人,S.bmp,Normal,Yes,n,n,1,654
1051,19,right,female,5,35,坏人,C.bmp,Bad,Yes,n,m,0,722
1051,19,right,female,5,36,坏人,S.bmp,Normal,No,m,m,1,712
1051,19,right,female,5,37,坏人,T.bmp,Good,No,m,m,1,897
1051,19,right,female,5,38,常人,S.bmp,Normal,Yes,n,n,1,653
1051,19,right,female,5,39,常人,T.bmp,Good,No,m,m,1,604
1051,19,right,female,5,40,坏人,C.bmp,Bad,Yes,n,n,1,595
1051,19,right,female,5,41,好人,C.bmp,Bad,No,m,n,0,817
1051,19,right,female,5,42,坏人,C.bmp,Bad,Yes,n,n,1,741
1051,19,right,female,5,43,好人,T.bmp,Good,Yes,n,n,1,964
1051,19,right,female,5,44,好人,T.bmp,Good,Yes,n,n,1,603
1051,19,right,female,5,45,常人,S.bmp,Normal,Yes,n,n,1,710
1051,19,right,female,5,46,好人,S.bmp,Normal,No,m,m,1,622
1051,19,right,female,5,47,坏人,S.bmp,Normal,No,m,m,1,890
1051,19,right,female,5,48,常人,C.bmp,Bad,No,m,m,1,801
1051,19,right,female,5,49,坏人,S.bmp,Normal,No,m,m,1,748
1051,19,right,female,5,50,常人,C.bmp,Bad,No,m,m,1,699
1051,19,right,female,5,51,常人,T.bmp,Good,No,m,m,1,766
1051,19,right,female,5,52,好人,T.bmp,Good,Yes,n,n,1,572
1051,19,right,female,5,53,好人,T.bmp,Good,Yes,n,n,1,484
1051,19,right,female,5,54,坏人,C.bmp,Bad,Yes,n,n,1,474
1051,19,right,female,5,55,好人,S.bmp,Normal,No,m,m,1,503
1051,19,right,female,5,56,好人,C.bmp,Bad,No,m,n,0,570
1051,19,right,female,5,57,坏人,C.bmp,Bad,Yes,n,n,1,483
1051,19,right,female,5,58,坏人,T.bmp,Good,No,m,n,0,707
1051,19,right,female,5,59,常人,S.bmp,Normal,Yes,n,n,1,697
1051,19,right,female,5,60,常人,S.bmp,Normal,Yes,n,n,1,503
1051,19,right,female,5,61,坏人,S.bmp,Normal,No,m,n,0,727
1051,19,right,female,5,62,常人,C.bmp,Bad,No,m,n,0,486
1051,19,right,female,5,63,好人,S.bmp,Normal,No,m,n,0,472
1051,19,right,female,5,64,常人,S.bmp,Normal,Yes,n,n,1,501
1051,19,right,female,5,65,坏人,C.bmp,Bad,Yes,n,n,1,691
1051,19,right,female,5,66,好人,C.bmp,Bad,No,m,m,1,754
1051,19,right,female,5,67,常人,S.bmp,Normal,Yes,n,n,1,470
1051,19,right,female,5,68,坏人,C.bmp,Bad,Yes,n,m,0,616
1051,19,right,female,5,69,好人,T.bmp,Good,Yes,n,n,1,490
1051,19,right,female,5,70,好人,T.bmp,Good,Yes,n,n,1,636
1051,19,right,female,5,71,常人,T.bmp,Good,No,m,m,1,666
1051,19,right,female,5,72,坏人,T.bmp,Good,No,m,m,1,773
1051,19,right,female,6,1,好人,C.bmp,Bad,No,m,m,1,918
1051,19,right,female,6,2,好人,T.bmp,Good,Yes,n,n,1,673
1051,19,right,female,6,3,坏人,T.bmp,Good,No,m,n,0,858
1051,19,right,female,6,4,坏人,C.bmp,Bad,Yes,n,n,1,770
1051,19,right,female,6,5,常人,T.bmp,Good,No,m,m,1,576
1051,19,right,female,6,6,坏人,S.bmp,Normal,No,m,m,1,839
1051,19,right,female,6,7,常人,S.bmp,Normal,Yes,n,n,1,556
1051,19,right,female,6,8,坏人,C.bmp,Bad,Yes,n,n,1,859
1051,19,right,female,6,9,好人,S.bmp,Normal,No,m,m,1,577
1051,19,right,female,6,10,好人,T.bmp,Good,Yes,n,n,1,682
1051,19,right,female,6,11,常人,C.bmp,Bad,No,m,m,1,633
1051,19,right,female,6,12,常人,S.bmp,Normal,Yes,n,n,1,584
1051,19,right,female,6,13,坏人,C.bmp,Bad,Yes,n,n,1,574
1051,19,right,female,6,14,好人,C.bmp,Bad,No,m,m,1,564
1051,19,right,female,6,15,好人,T.bmp,Good,Yes,n,n,1,635
1051,19,right,female,6,16,常人,T.bmp,Good,No,m,m,1,587
1051,19,right,female,6,17,好人,S.bmp,Normal,No,m,m,1,650
1051,19,right,female,6,18,好人,T.bmp,Good,Yes,n,n,1,565
1051,19,right,female,6,19,坏人,C.bmp,Bad,Yes,n,n,1,669
1051,19,right,female,6,20,常人,S.bmp,Normal,Yes,n,n,1,620
1051,19,right,female,6,21,常人,C.bmp,Bad,No,m,m,1,806
1051,19,right,female,6,22,常人,S.bmp,Normal,Yes,n,n,1,640
1051,19,right,female,6,23,坏人,S.bmp,Normal,No,m,m,1,708
1051,19,right,female,6,24,坏人,T.bmp,Good,No,m,n,0,542
1051,19,right,female,6,25,好人,C.bmp,Bad,No,m,n,0,688
1051,19,right,female,6,26,坏人,S.bmp,Normal,No,m,m,1,717
1051,19,right,female,6,27,坏人,C.bmp,Bad,Yes,n,n,1,667
1051,19,right,female,6,28,坏人,T.bmp,Good,No,m,n,0,541
1051,19,right,female,6,29,常人,C.bmp,Bad,No,m,m,1,764
1051,19,right,female,6,30,常人,T.bmp,Good,No,m,m,1,793
1051,19,right,female,6,31,好人,T.bmp,Good,Yes,n,n,1,666
1051,19,right,female,6,32,常人,S.bmp,Normal,Yes,n,n,1,695
1051,19,right,female,6,33,常人,S.bmp,Normal,Yes,n,n,1,803
1051,19,right,female,6,34,好人,T.bmp,Good,Yes,n,n,1,637
1051,19,right,female,6,35,好人,S.bmp,Normal,No,m,m,1,627
1051,19,right,female,6,36,坏人,C.bmp,Bad,Yes,n,n,1,655
1051,19,right,female,6,37,常人,S.bmp,Normal,Yes,n,n,1,802
1051,19,right,female,6,38,坏人,T.bmp,Good,No,m,m,1,713
1051,19,right,female,6,39,坏人,C.bmp,Bad,Yes,n,n,1,859
1051,19,right,female,6,40,坏人,C.bmp,Bad,Yes,n,n,1,615
1051,19,right,female,6,41,常人,T.bmp,Good,No,m,m,1,655
1051,19,right,female,6,42,好人,T.bmp,Good,Yes,n,n,1,723
1051,19,right,female,6,43,好人,S.bmp,Normal,No,m,m,1,618
1051,19,right,female,6,44,常人,C.bmp,Bad,No,m,n,0,686
1051,19,right,female,6,45,好人,T.bmp,Good,Yes,n,n,1,599
1051,19,right,female,6,46,坏人,S.bmp,Normal,No,m,m,1,666
1051,19,right,female,6,47,好人,C.bmp,Bad,No,m,m,1,812
1051,19,right,female,6,48,常人,S.bmp,Normal,Yes,n,n,1,650
1051,19,right,female,6,49,常人,S.bmp,Normal,Yes,n,n,1,530
1051,19,right,female,6,50,好人,T.bmp,Good,Yes,n,n,1,676
1051,19,right,female,6,51,好人,T.bmp,Good,Yes,n,n,1,745
1051,19,right,female,6,52,常人,T.bmp,Good,No,m,m,1,538
1051,19,right,female,6,53,常人,S.bmp,Normal,Yes,n,n,1,529
1051,19,right,female,6,54,坏人,T.bmp,Good,No,m,m,1,714
1051,19,right,female,6,55,常人,C.bmp,Bad,No,m,m,1,598
1051,19,right,female,6,56,坏人,C.bmp,Bad,Yes,n,n,1,824
1051,19,right,female,6,57,好人,S.bmp,Normal,No,m,m,1,734
1051,19,right,female,6,58,好人,C.bmp,Bad,No,m,m,1,958
1051,19,right,female,6,59,坏人,S.bmp,Normal,No,m,m,1,870
1051,19,right,female,6,60,坏人,C.bmp,Bad,Yes,n,m,0,626
1051,19,right,female,6,61,好人,T.bmp,Good,Yes,n,n,1,537
1051,19,right,female,6,62,常人,S.bmp,Normal,Yes,n,n,1,644
1051,19,right,female,6,63,坏人,S.bmp,Normal,No,m,m,1,606
1051,19,right,female,6,64,好人,T.bmp,Good,Yes,n,n,1,635
1051,19,right,female,6,65,好人,S.bmp,Normal,No,m,m,1,703
1051,19,right,female,6,66,好人,C.bmp,Bad,No,m,n,0,746
1051,19,right,female,6,67,坏人,T.bmp,Good,No,m,m,1,695
1051,19,right,female,6,68,坏人,C.bmp,Bad,Yes,n,m,0,768
1051,19,right,female,6,69,常人,S.bmp,Normal,Yes,n,m,0,635
1051,19,right,female,6,70,常人,C.bmp,Bad,No,m,m,1,742
1051,19,right,female,6,71,坏人,C.bmp,Bad,Yes,n,n,1,888
1051,19,right,female,6,72,常人,T.bmp,Good,No,m,m,1,722
1051,19,right,female,7,1,常人,T.bmp,Good,No,m,n,0,790
1051,19,right,female,7,2,常人,C.bmp,Bad,No,m,m,1,663
1051,19,right,female,7,3,常人,S.bmp,Normal,Yes,n,n,1,692
1051,19,right,female,7,4,坏人,C.bmp,Bad,Yes,n,m,0,744
1051,19,right,female,7,5,坏人,T.bmp,Good,No,m,m,1,773
1051,19,right,female,7,6,好人,T.bmp,Good,Yes,n,n,1,841
1051,19,right,female,7,7,坏人,S.bmp,Normal,No,m,m,1,678
1051,19,right,female,7,8,坏人,C.bmp,Bad,Yes,n,m,0,860
1051,19,right,female,7,9,好人,T.bmp,Good,Yes,n,n,1,459
1051,19,right,female,7,10,好人,S.bmp,Normal,No,m,m,1,609
1051,19,right,female,7,11,常人,S.bmp,Normal,Yes,n,n,1,752
1051,19,right,female,7,12,好人,C.bmp,Bad,No,m,m,1,819
1051,19,right,female,7,13,坏人,S.bmp,Normal,No,m,m,1,782
1051,19,right,female,7,14,坏人,C.bmp,Bad,Yes,n,n,1,616
1051,19,right,female,7,15,好人,S.bmp,Normal,No,m,m,1,645
1051,19,right,female,7,16,常人,T.bmp,Good,No,m,m,1,752
1051,19,right,female,7,17,好人,T.bmp,Good,Yes,n,n,1,781
1051,19,right,female,7,18,好人,T.bmp,Good,Yes,n,n,1,615
1051,19,right,female,7,19,常人,S.bmp,Normal,Yes,n,m,0,565
1051,19,right,female,7,20,坏人,C.bmp,Bad,Yes,n,n,1,712
1051,19,right,female,7,21,坏人,T.bmp,Good,No,m,n,0,623
1051,19,right,female,7,22,好人,C.bmp,Bad,No,m,m,1,613
1051,19,right,female,7,23,常人,S.bmp,Normal,Yes,n,n,1,646
1051,19,right,female,7,24,常人,C.bmp,Bad,No,m,m,1,632
1051,19,right,female,7,25,好人,C.bmp,Bad,No,m,m,1,662
1051,19,right,female,7,26,坏人,C.bmp,Bad,Yes,n,n,1,691
1051,19,right,female,7,27,常人,C.bmp,Bad,No,m,m,1,642
1051,19,right,female,7,28,坏人,S.bmp,Normal,No,m,m,1,749
1051,19,right,female,7,29,好人,T.bmp,Good,Yes,n,m,0,739
1051,19,right,female,7,30,常人,S.bmp,Normal,Yes,n,n,1,575
1051,19,right,female,7,31,常人,S.bmp,Normal,Yes,n,n,1,524
1051,19,right,female,7,32,好人,S.bmp,Normal,No,m,m,1,592
1051,19,right,female,7,33,常人,T.bmp,Good,No,m,m,1,738
1051,19,right,female,7,34,坏人,T.bmp,Good,No,m,n,0,611
1051,19,right,female,7,35,坏人,C.bmp,Bad,Yes,n,m,0,796
1051,19,right,female,7,36,好人,T.bmp,Good,Yes,n,n,1,513
1051,19,right,female,7,37,坏人,C.bmp,Bad,Yes,n,n,1,739
1051,19,right,female,7,38,好人,S.bmp,Normal,No,m,m,1,650
1051,19,right,female,7,39,常人,T.bmp,Good,No,m,n,0,757
1051,19,right,female,7,40,坏人,S.bmp,Normal,No,m,m,1,1022
1051,19,right,female,7,41,常人,C.bmp,Bad,No,m,n,0,973
1051,19,right,female,7,42,坏人,C.bmp,Bad,Yes,n,n,1,889
1051,19,right,female,7,43,常人,S.bmp,Normal,Yes,n,n,1,758
1051,19,right,female,7,44,好人,T.bmp,Good,Yes,n,n,1,592
1051,19,right,female,7,45,好人,C.bmp,Bad,No,m,m,1,582
1051,19,right,female,7,46,好人,T.bmp,Good,Yes,n,n,1,689
1051,19,right,female,7,47,常人,S.bmp,Normal,Yes,n,n,1,601
1051,19,right,female,7,48,坏人,T.bmp,Good,No,m,n,0,669
1051,19,right,female,7,49,好人,C.bmp,Bad,No,m,n,0,659
1051,19,right,female,7,50,坏人,T.bmp,Good,No,m,n,0,730
1051,19,right,female,7,51,常人,C.bmp,Bad,No,m,m,1,757
1051,19,right,female,7,52,坏人,C.bmp,Bad,Yes,n,n,1,825
1051,19,right,female,7,53,坏人,C.bmp,Bad,Yes,n,n,1,854
1051,19,right,female,7,54,常人,S.bmp,Normal,Yes,n,n,1,688
1051,19,right,female,7,55,好人,T.bmp,Good,Yes,n,n,1,731
1051,19,right,female,7,56,好人,T.bmp,Good,Yes,n,m,0,603
1051,19,right,female,7,57,好人,S.bmp,Normal,No,m,m,1,668
1051,19,right,female,7,58,常人,T.bmp,Good,No,m,m,1,697
1051,19,right,female,7,59,坏人,S.bmp,Normal,No,m,m,1,737
1051,19,right,female,7,60,常人,S.bmp,Normal,Yes,n,n,1,699
1051,19,right,female,7,61,好人,C.bmp,Bad,No,m,m,1,767
1051,19,right,female,7,62,坏人,T.bmp,Good,No,m,n,0,680
1051,19,right,female,7,63,坏人,C.bmp,Bad,Yes,n,n,1,865
1051,19,right,female,7,64,常人,C.bmp,Bad,No,m,m,1,816
1051,19,right,female,7,65,常人,S.bmp,Normal,Yes,n,n,1,611
1051,19,right,female,7,66,好人,S.bmp,Normal,No,m,m,1,718
1051,19,right,female,7,67,好人,T.bmp,Good,Yes,n,n,1,708
1051,19,right,female,7,68,常人,T.bmp,Good,No,m,m,1,776
1051,19,right,female,7,69,好人,T.bmp,Good,Yes,n,n,1,727
1051,19,right,female,7,70,常人,S.bmp,Normal,Yes,n,n,1,600
1051,19,right,female,7,71,坏人,C.bmp,Bad,Yes,n,n,1,668
1051,19,right,female,7,72,坏人,S.bmp,Normal,No,m,m,1,619
1051,19,right,female,8,1,常人,S.bmp,Normal,Yes,n,n,1,650
1051,19,right,female,8,2,常人,S.bmp,Normal,Yes,n,n,1,522
1051,19,right,female,8,3,坏人,C.bmp,Bad,Yes,n,n,1,562
1051,19,right,female,8,4,坏人,T.bmp,Good,No,m,n,0,669
1051,19,right,female,8,5,常人,T.bmp,Good,No,m,m,1,665
1051,19,right,female,8,6,好人,C.bmp,Bad,No,m,m,1,650
1051,19,right,female,8,7,好人,T.bmp,Good,Yes,n,n,1,679
1051,19,right,female,8,8,常人,C.bmp,Bad,No,m,m,1,629
1051,19,right,female,8,9,坏人,S.bmp,Normal,No,m,m,1,698
1051,19,right,female,8,10,好人,T.bmp,Good,Yes,n,n,1,649
1051,19,right,female,8,11,坏人,C.bmp,Bad,Yes,n,n,1,600
1051,19,right,female,8,12,好人,S.bmp,Normal,No,m,m,1,554
1051,19,right,female,8,13,好人,T.bmp,Good,Yes,n,n,1,502
1051,19,right,female,8,14,坏人,S.bmp,Normal,No,m,m,1,572
1051,19,right,female,8,15,常人,S.bmp,Normal,Yes,n,n,1,718
1051,19,right,female,8,16,好人,C.bmp,Bad,No,m,m,1,707
1051,19,right,female,8,17,坏人,C.bmp,Bad,Yes,n,n,1,853
1051,19,right,female,8,18,常人,C.bmp,Bad,No,m,m,1,765
1051,19,right,female,8,19,坏人,C.bmp,Bad,Yes,n,n,1,844
1051,19,right,female,8,20,好人,S.bmp,Normal,No,m,m,1,717
1051,19,right,female,8,21,常人,S.bmp,Normal,Yes,n,n,1,707
1051,19,right,female,8,22,坏人,T.bmp,Good,No,m,n,0,736
1051,19,right,female,8,23,好人,T.bmp,Good,Yes,n,n,1,609
1051,19,right,female,8,24,常人,T.bmp,Good,No,m,m,1,599
1051,19,right,female,8,25,坏人,C.bmp,Bad,Yes,n,n,1,667
1051,19,right,female,8,26,常人,S.bmp,Normal,Yes,n,n,1,970
1051,19,right,female,8,27,坏人,T.bmp,Good,No,m,m,1,726
1051,19,right,female,8,28,坏人,C.bmp,Bad,Yes,n,n,1,564
1051,19,right,female,8,29,常人,C.bmp,Bad,No,m,m,1,862
1051,19,right,female,8,30,好人,T.bmp,Good,Yes,n,n,1,696
1051,19,right,female,8,31,好人,T.bmp,Good,Yes,n,n,1,608
1051,19,right,female,8,32,坏人,S.bmp,Normal,No,m,m,1,520
1051,19,right,female,8,33,好人,S.bmp,Normal,No,m,n,0,510
1051,19,right,female,8,34,常人,T.bmp,Good,No,m,m,1,734
1051,19,right,female,8,35,好人,C.bmp,Bad,No,m,m,1,685
1051,19,right,female,8,36,常人,S.bmp,Normal,Yes,n,n,1,714
1051,19,right,female,8,37,好人,T.bmp,Good,Yes,n,n,1,587
1051,19,right,female,8,38,坏人,T.bmp,Good,No,m,m,1,695
1051,19,right,female,8,39,常人,T.bmp,Good,No,m,m,1,607
1051,19,right,female,8,40,好人,C.bmp,Bad,No,m,m,1,714
1051,19,right,female,8,41,常人,S.bmp,Normal,Yes,n,n,1,705
1051,19,right,female,8,42,好人,S.bmp,Normal,No,m,m,1,655
1051,19,right,female,8,43,坏人,S.bmp,Normal,No,m,n,0,646
1051,19,right,female,8,44,常人,C.bmp,Bad,No,m,m,1,646
1051,19,right,female,8,45,常人,S.bmp,Normal,Yes,n,n,1,597
1051,19,right,female,8,46,坏人,C.bmp,Bad,Yes,n,m,0,627
1051,19,right,female,8,47,好人,T.bmp,Good,Yes,n,n,1,499
1051,19,right,female,8,48,坏人,C.bmp,Bad,Yes,n,m,0,529
1051,19,right,female,8,49,好人,T.bmp,Good,Yes,n,n,1,441
1051,19,right,female,8,50,坏人,T.bmp,Good,No,m,n,0,470
1051,19,right,female,8,51,常人,C.bmp,Bad,No,m,m,1,656
1051,19,right,female,8,52,常人,S.bmp,Normal,Yes,n,n,1,880
1051,19,right,female,8,53,坏人,S.bmp,Normal,No,m,m,1,792
1051,19,right,female,8,54,好人,T.bmp,Good,Yes,n,n,1,938
1051,19,right,female,8,55,好人,S.bmp,Normal,No,m,m,1,774
1051,19,right,female,8,56,常人,S.bmp,Normal,Yes,n,n,1,528
1051,19,right,female,8,57,坏人,C.bmp,Bad,Yes,n,n,1,752
1051,19,right,female,8,58,好人,C.bmp,Bad,No,m,m,1,703
1051,19,right,female,8,59,常人,T.bmp,Good,No,m,m,1,693
1051,19,right,female,8,60,坏人,C.bmp,Bad,Yes,n,n,1,683
1051,19,right,female,8,61,常人,S.bmp,Normal,Yes,n,n,1,634
1051,19,right,female,8,62,常人,T.bmp,Good,No,m,m,1,585
1051,19,right,female,8,63,坏人,C.bmp,Bad,Yes,n,n,1,576
1051,19,right,female,8,64,坏人,S.bmp,Normal,No,m,m,1,566
1051,19,right,female,8,65,好人,T.bmp,Good,Yes,n,n,1,673
1051,19,right,female,8,66,坏人,C.bmp,Bad,Yes,n,n,1,702
1051,19,right,female,8,67,常人,C.bmp,Bad,No,m,m,1,653
1051,19,right,female,8,68,好人,S.bmp,Normal,No,m,m,1,576
1051,19,right,female,8,69,好人,C.bmp,Bad,No,m,n,0,616
1051,19,right,female,8,70,好人,T.bmp,Good,Yes,n,n,1,606
1051,19,right,female,8,71,坏人,T.bmp,Good,No,m,n,0,713
1051,19,right,female,8,72,常人,S.bmp,Normal,Yes,n,n,1,508
1051,19,right,female,9,1,坏人,C.bmp,Bad,Yes,n,n,1,772
1051,19,right,female,9,2,坏人,S.bmp,Normal,No,m,m,1,685
1051,19,right,female,9,3,好人,S.bmp,Normal,No,m,m,1,792
1051,19,right,female,9,4,坏人,T.bmp,Good,No,m,m,1,978
1051,19,right,female,9,5,常人,S.bmp,Normal,Yes,n,n,1,616
1051,19,right,female,9,6,常人,S.bmp,Normal,Yes,n,n,1,607
1051,19,right,female,9,7,好人,C.bmp,Bad,No,m,n,0,792
1051,19,right,female,9,8,常人,T.bmp,Good,No,m,m,1,704
1051,19,right,female,9,9,好人,T.bmp,Good,Yes,n,n,1,736
1051,19,right,female,9,10,常人,C.bmp,Bad,No,m,m,1,645
1051,19,right,female,9,11,好人,T.bmp,Good,Yes,n,n,1,987
1051,19,right,female,9,12,坏人,C.bmp,Bad,Yes,n,n,1,707
1051,19,right,female,9,13,坏人,T.bmp,Good,No,m,m,1,577
1051,19,right,female,9,14,好人,C.bmp,Bad,No,m,m,1,802
1051,19,right,female,9,15,坏人,C.bmp,Bad,Yes,n,n,1,792
1051,19,right,female,9,16,好人,S.bmp,Normal,No,m,m,1,627
1051,19,right,female,9,17,好人,T.bmp,Good,Yes,n,n,1,617
1051,19,right,female,9,18,坏人,S.bmp,Normal,No,m,m,1,568
1051,19,right,female,9,19,常人,S.bmp,Normal,Yes,n,n,1,569
1051,19,right,female,9,20,常人,C.bmp,Bad,No,m,m,1,559
1051,19,right,female,9,21,常人,T.bmp,Good,No,m,n,0,510
1051,19,right,female,9,22,好人,T.bmp,Good,Yes,n,n,1,383
1051,19,right,female,9,23,常人,S.bmp,Normal,Yes,n,m,0,540
1051,19,right,female,9,24,坏人,C.bmp,Bad,Yes,n,n,1,530
1051,19,right,female,9,25,常人,T.bmp,Good,No,m,m,1,638
1051,19,right,female,9,26,坏人,T.bmp,Good,No,m,m,1,862
1051,19,right,female,9,27,好人,S.bmp,Normal,No,m,n,0,513
1051,19,right,female,9,28,常人,S.bmp,Normal,Yes,n,n,1,503
1051,19,right,female,9,29,坏人,C.bmp,Bad,Yes,n,m,0,571
1051,19,right,female,9,30,好人,C.bmp,Bad,No,m,n,0,455
1051,19,right,female,9,31,坏人,C.bmp,Bad,Yes,n,m,0,679
1051,19,right,female,9,32,好人,T.bmp,Good,Yes,n,n,1,563
1051,19,right,female,9,33,常人,S.bmp,Normal,Yes,n,n,1,603
1051,19,right,female,9,34,坏人,S.bmp,Normal,No,m,n,0,749
1051,19,right,female,9,35,常人,C.bmp,Bad,No,m,m,1,701
1051,19,right,female,9,36,好人,T.bmp,Good,Yes,n,n,1,808
1051,19,right,female,9,37,坏人,C.bmp,Bad,Yes,n,n,1,529
1051,19,right,female,9,38,坏人,C.bmp,Bad,Yes,n,n,1,671
1051,19,right,female,9,39,坏人,S.bmp,Normal,No,m,m,1,623
1051,19,right,female,9,40,常人,S.bmp,Normal,Yes,n,n,1,574
1051,19,right,female,9,41,常人,T.bmp,Good,No,m,m,1,565
1051,19,right,female,9,42,常人,S.bmp,Normal,Yes,n,n,1,516
1051,19,right,female,9,43,好人,C.bmp,Bad,No,m,m,1,712
1051,19,right,female,9,44,好人,S.bmp,Normal,No,m,m,1,663
1051,19,right,female,9,45,常人,C.bmp,Bad,No,m,m,1,731
1051,19,right,female,9,46,坏人,T.bmp,Good,No,m,m,1,800
1051,19,right,female,9,47,好人,T.bmp,Good,Yes,n,n,1,712
1051,19,right,female,9,48,好人,T.bmp,Good,Yes,n,n,1,506
1051,19,right,female,9,49,好人,C.bmp,Bad,No,m,n,0,509
1051,19,right,female,9,50,常人,S.bmp,Normal,Yes,n,n,1,654
1051,19,right,female,9,51,好人,T.bmp,Good,Yes,n,n,1,690
1051,19,right,female,9,52,好人,T.bmp,Good,Yes,n,n,1,713
1051,19,right,female,9,53,坏人,T.bmp,Good,No,m,m,1,625
1051,19,right,female,9,54,坏人,C.bmp,Bad,Yes,n,n,1,655
1051,19,right,female,9,55,坏人,S.bmp,Normal,No,m,m,1,645
1051,19,right,female,9,56,常人,T.bmp,Good,No,m,m,1,674
1051,19,right,female,9,57,常人,C.bmp,Bad,No,m,m,1,859
1051,19,right,female,9,58,坏人,C.bmp,Bad,Yes,n,m,0,889
1051,19,right,female,9,59,好人,S.bmp,Normal,No,m,n,0,460
1051,19,right,female,9,60,常人,S.bmp,Normal,Yes,n,n,1,528
1051,19,right,female,9,61,常人,S.bmp,Normal,Yes,n,n,1,557
1051,19,right,female,9,62,坏人,T.bmp,Good,No,m,n,0,676
1051,19,right,female,9,63,常人,S.bmp,Normal,Yes,n,n,1,666
1051,19,right,female,9,64,坏人,C.bmp,Bad,Yes,n,n,1,540
1051,19,right,female,9,65,好人,T.bmp,Good,Yes,n,m,0,608
1051,19,right,female,9,66,坏人,C.bmp,Bad,Yes,n,n,1,598
1051,19,right,female,9,67,常人,T.bmp,Good,No,m,m,1,599
1051,19,right,female,9,68,好人,C.bmp,Bad,No,m,n,0,756
1051,19,right,female,9,69,好人,T.bmp,Good,Yes,n,n,1,629
1051,19,right,female,9,70,常人,C.bmp,Bad,No,m,m,1,737
1051,19,right,female,9,71,坏人,S.bmp,Normal,No,m,m,1,649
1051,19,right,female,9,72,好人,S.bmp,Normal,No,m,m,1,678
1051,19,right,female,10,1,坏人,C.bmp,Bad,Yes,n,n,1,670
1051,19,right,female,10,2,好人,T.bmp,Good,Yes,n,n,1,661
1051,19,right,female,10,3,坏人,S.bmp,Normal,No,m,m,1,623
1051,19,right,female,10,4,好人,S.bmp,Normal,No,m,m,1,770
1051,19,right,female,10,5,常人,S.bmp,Normal,Yes,n,m,0,721
1051,19,right,female,10,6,常人,T.bmp,Good,No,m,m,1,633
1051,19,right,female,10,7,坏人,T.bmp,Good,No,m,m,1,896
1051,19,right,female,10,8,常人,S.bmp,Normal,Yes,n,n,1,808
1051,19,right,female,10,9,常人,C.bmp,Bad,No,m,m,1,564
1051,19,right,female,10,10,坏人,C.bmp,Bad,Yes,n,n,1,906
1051,19,right,female,10,11,好人,C.bmp,Bad,No,m,m,1,584
1051,19,right,female,10,12,好人,T.bmp,Good,Yes,n,n,1,652
1051,19,right,female,10,13,常人,S.bmp,Normal,Yes,n,n,1,564
1051,19,right,female,10,14,坏人,T.bmp,Good,No,m,n,0,712
1051,19,right,female,10,15,坏人,C.bmp,Bad,Yes,n,n,1,780
1051,19,right,female,10,16,好人,T.bmp,Good,Yes,n,n,1,692
1051,19,right,female,10,17,坏人,S.bmp,Normal,No,m,m,1,604
1051,19,right,female,10,18,好人,S.bmp,Normal,No,m,m,1,761
1051,19,right,female,10,19,常人,T.bmp,Good,No,m,m,1,947
1051,19,right,female,10,20,坏人,C.bmp,Bad,Yes,n,n,1,703
1051,19,right,female,10,21,好人,C.bmp,Bad,No,m,m,1,615
1051,19,right,female,10,22,常人,S.bmp,Normal,Yes,n,n,1,605
1051,19,right,female,10,23,常人,C.bmp,Bad,No,m,m,1,595
1051,19,right,female,10,24,好人,T.bmp,Good,Yes,n,n,1,585
1051,19,right,female,10,25,常人,C.bmp,Bad,No,m,m,1,615
1051,19,right,female,10,26,坏人,S.bmp,Normal,No,m,m,1,683
1051,19,right,female,10,27,好人,T.bmp,Good,Yes,n,n,1,674
1051,19,right,female,10,28,坏人,C.bmp,Bad,Yes,n,n,1,860
1051,19,right,female,10,29,坏人,T.bmp,Good,No,m,m,1,694
1051,19,right,female,10,30,坏人,C.bmp,Bad,Yes,n,n,1,840
1051,19,right,female,10,31,好人,C.bmp,Bad,No,m,m,1,713
1051,19,right,female,10,32,常人,T.bmp,Good,No,m,m,1,820
1051,19,right,female,10,33,好人,T.bmp,Good,Yes,n,n,1,733
1051,19,right,female,10,34,常人,S.bmp,Normal,Yes,n,n,1,645
1051,19,right,female,10,35,好人,S.bmp,Normal,No,m,m,1,635
1051,19,right,female,10,36,常人,S.bmp,Normal,Yes,n,n,1,586
1051,19,right,female,10,37,常人,T.bmp,Good,No,m,m,1,615
1051,19,right,female,10,38,好人,T.bmp,Good,Yes,n,n,1,488
1051,19,right,female,10,39,坏人,T.bmp,Good,No,m,n,0,518
1051,19,right,female,10,40,常人,S.bmp,Normal,Yes,n,n,1,559
1051,19,right,female,10,41,坏人,S.bmp,Normal,No,m,m,1,627
1051,19,right,female,10,42,好人,S.bmp,Normal,No,m,n,0,656
1051,19,right,female,10,43,坏人,C.bmp,Bad,Yes,n,n,1,451
1051,19,right,female,10,44,常人,C.bmp,Bad,No,m,m,1,676
1051,19,right,female,10,45,坏人,C.bmp,Bad,Yes,n,n,1,746
1051,19,right,female,10,46,好人,C.bmp,Bad,No,m,m,1,706
1051,19,right,female,10,47,好人,T.bmp,Good,Yes,n,n,1,579
1051,19,right,female,10,48,常人,S.bmp,Normal,Yes,n,m,0,608
1051,19,right,female,10,49,好人,T.bmp,Good,Yes,n,n,1,570
1051,19,right,female,10,50,常人,T.bmp,Good,No,m,m,1,641
1051,19,right,female,10,51,好人,T.bmp,Good,Yes,n,n,1,746
1051,19,right,female,10,52,好人,C.bmp,Bad,No,m,m,1,738
1051,19,right,female,10,53,常人,S.bmp,Normal,Yes,n,n,1,649
1051,19,right,female,10,54,坏人,C.bmp,Bad,Yes,n,n,1,760
1051,19,right,female,10,55,坏人,T.bmp,Good,No,m,m,1,669
1051,19,right,female,10,56,坏人,S.bmp,Normal,No,m,m,1,698
1051,19,right,female,10,57,坏人,C.bmp,Bad,Yes,n,m,0,767
1051,19,right,female,10,58,常人,S.bmp,Normal,Yes,n,n,1,679
1051,19,right,female,10,59,好人,S.bmp,Normal,No,m,m,1,630
1051,19,right,female,10,60,常人,C.bmp,Bad,No,m,m,1,659
1051,19,right,female,10,61,常人,S.bmp,Normal,Yes,n,m,0,738
1051,19,right,female,10,62,好人,T.bmp,Good,Yes,n,n,1,533
1051,19,right,female,10,63,好人,S.bmp,Normal,No,m,m,1,524
1051,19,right,female,10,64,好人,T.bmp,Good,Yes,n,n,1,631
1051,19,right,female,10,65,常人,T.bmp,Good,No,m,m,1,663
1051,19,right,female,10,66,常人,C.bmp,Bad,No,m,n,0,769
1051,19,right,female,10,67,常人,S.bmp,Normal,Yes,n,n,1,460
1051,19,right,female,10,68,坏人,C.bmp,Bad,Yes,n,n,1,606
1051,19,right,female,10,69,坏人,S.bmp,Normal,No,m,m,1,674
1051,19,right,female,10,70,好人,C.bmp,Bad,No,m,m,1,977
1051,19,right,female,10,71,坏人,C.bmp,Bad,Yes,n,n,1,1045
1051,19,right,female,10,72,坏人,T.bmp,Good,No,m,n,0,684
1054,18,right,male,,1,坏人,S.bmp,Bad,Yes,m,m,1,815
1054,18,right,male,,2,常人,C.bmp,Normal,Yes,m,m,1,748
1054,18,right,male,,3,常人,S.bmp,Bad,No,n,n,1,681
1054,18,right,male,,4,好人,T.bmp,Good,Yes,m,m,1,426
1054,18,right,male,,5,坏人,S.bmp,Bad,Yes,m,m,1,510
1054,18,right,male,,6,常人,C.bmp,Normal,Yes,m,m,1,492
1054,18,right,male,,7,好人,C.bmp,Normal,No,n,n,1,840
1054,18,right,male,,8,常人,T.bmp,Good,No,n,n,1,584
1054,18,right,male,,9,坏人,T.bmp,Good,No,n,n,1,744
1054,18,right,male,,10,坏人,C.bmp,Normal,No,n,n,1,677
1054,18,right,male,,11,好人,T.bmp,Good,Yes,m,m,1,536
1054,18,right,male,,12,好人,S.bmp,Bad,No,n,n,1,592
1054,18,right,male,,13,好人,T.bmp,Good,Yes,m,m,1,526
1054,18,right,male,,14,坏人,S.bmp,Bad,Yes,m,m,1,611
1054,18,right,male,,15,常人,T.bmp,Good,No,n,n,1,582
1054,18,right,male,,16,好人,S.bmp,Bad,No,n,n,1,639
1054,18,right,male,,17,常人,C.bmp,Normal,Yes,m,m,1,572
1054,18,right,male,,18,常人,C.bmp,Normal,Yes,m,m,1,769
1054,18,right,male,,19,常人,S.bmp,Bad,No,n,n,1,854
1054,18,right,male,,20,坏人,T.bmp,Good,No,n,n,1,712
1054,18,right,male,,21,好人,C.bmp,Normal,No,n,n,1,683
1054,18,right,male,,22,坏人,C.bmp,Normal,No,n,n,1,729
1054,18,right,male,,23,好人,T.bmp,Good,Yes,m,m,1,813
1054,18,right,male,,24,坏人,S.bmp,Bad,Yes,m,m,1,595
1054,18,right,male,1,1,好人,C.bmp,Normal,No,n,n,1,639
1054,18,right,male,1,2,坏人,C.bmp,Normal,No,n,n,1,498
1054,18,right,male,1,3,坏人,S.bmp,Bad,Yes,m,m,1,582
1054,18,right,male,1,4,好人,S.bmp,Bad,No,n,n,1,516
1054,18,right,male,1,5,好人,T.bmp,Good,Yes,m,m,1,459
1054,18,right,male,1,6,常人,T.bmp,Good,No,n,n,1,506
1054,18,right,male,1,7,坏人,T.bmp,Good,No,n,n,1,590
1054,18,right,male,1,8,常人,C.bmp,Normal,Yes,m,m,1,599
1054,18,right,male,1,9,好人,T.bmp,Good,Yes,m,m,1,533
1054,18,right,male,1,10,坏人,S.bmp,Bad,Yes,m,m,1,655
1054,18,right,male,1,11,常人,C.bmp,Normal,Yes,m,m,1,588
1054,18,right,male,1,12,常人,S.bmp,Bad,No,n,n,1,635
1054,18,right,male,1,13,好人,C.bmp,Normal,No,n,n,1,644
1054,18,right,male,1,14,坏人,C.bmp,Normal,No,n,n,1,841
1054,18,right,male,1,15,常人,C.bmp,Normal,Yes,m,m,1,812
1054,18,right,male,1,16,好人,T.bmp,Good,Yes,m,m,1,520
1054,18,right,male,1,17,好人,S.bmp,Bad,No,n,n,1,567
1054,18,right,male,1,18,常人,T.bmp,Good,No,n,n,1,727
1054,18,right,male,1,19,坏人,S.bmp,Bad,Yes,m,m,1,510
1054,18,right,male,1,20,常人,S.bmp,Bad,No,n,n,1,557
1054,18,right,male,1,21,常人,C.bmp,Normal,Yes,m,m,1,452
1054,18,right,male,1,22,坏人,T.bmp,Good,No,n,n,1,650
1054,18,right,male,1,23,坏人,S.bmp,Bad,Yes,m,m,1,470
1054,18,right,male,1,24,好人,T.bmp,Good,Yes,m,m,1,592
1054,18,right,male,1,25,好人,S.bmp,Bad,No,n,n,1,564
1054,18,right,male,1,26,坏人,S.bmp,Bad,Yes,m,n,0,535
1054,18,right,male,1,27,坏人,T.bmp,Good,No,n,n,1,706
1054,18,right,male,1,28,常人,C.bmp,Normal,Yes,m,m,1,677
1054,18,right,male,1,29,坏人,C.bmp,Normal,No,n,n,1,724
1054,18,right,male,1,30,好人,T.bmp,Good,Yes,m,m,1,621
1054,18,right,male,1,31,常人,C.bmp,Normal,Yes,m,m,1,678
1054,18,right,male,1,32,常人,S.bmp,Bad,No,n,n,1,573
1054,18,right,male,1,33,坏人,S.bmp,Bad,Yes,m,m,1,545
1054,18,right,male,1,34,好人,C.bmp,Normal,No,n,n,1,780
1054,18,right,male,1,35,常人,T.bmp,Good,No,n,n,1,638
1054,18,right,male,1,36,好人,T.bmp,Good,Yes,m,m,1,647
1054,18,right,male,1,37,好人,C.bmp,Normal,No,n,n,1,656
1054,18,right,male,1,38,常人,C.bmp,Normal,Yes,m,m,1,589
1054,18,right,male,1,39,好人,T.bmp,Good,Yes,m,m,1,523
1054,18,right,male,1,40,常人,T.bmp,Good,No,n,n,1,569
1054,18,right,male,1,41,好人,T.bmp,Good,Yes,m,m,1,589
1054,18,right,male,1,42,好人,S.bmp,Bad,No,n,n,1,635
1054,18,right,male,1,43,常人,C.bmp,Normal,Yes,m,m,1,644
1054,18,right,male,1,44,坏人,C.bmp,Normal,No,n,n,1,767
1054,18,right,male,1,45,坏人,T.bmp,Good,No,n,n,1,625
1054,18,right,male,1,46,常人,S.bmp,Bad,No,n,n,1,785
1054,18,right,male,1,47,坏人,S.bmp,Bad,Yes,m,m,1,492
1054,18,right,male,1,48,坏人,S.bmp,Bad,Yes,m,n,0,652
1054,18,right,male,1,49,好人,C.bmp,Normal,No,n,n,1,623
1054,18,right,male,1,50,坏人,S.bmp,Bad,Yes,m,m,1,567
1054,18,right,male,1,51,常人,T.bmp,Good,No,n,n,1,539
1054,18,right,male,1,52,常人,C.bmp,Normal,Yes,m,m,1,623
1054,18,right,male,1,53,好人,S.bmp,Bad,No,n,n,1,680
1054,18,right,male,1,54,坏人,S.bmp,Bad,Yes,m,n,0,915
1054,18,right,male,1,55,坏人,T.bmp,Good,No,n,n,1,698
1054,18,right,male,1,56,坏人,C.bmp,Normal,No,n,n,1,707
1054,18,right,male,1,57,常人,C.bmp,Normal,Yes,m,m,1,641
1054,18,right,male,1,58,常人,S.bmp,Bad,No,n,n,1,801
1054,18,right,male,1,59,好人,T.bmp,Good,Yes,m,m,1,660
1054,18,right,male,1,60,好人,T.bmp,Good,Yes,m,m,1,857
1054,18,right,male,1,61,好人,C.bmp,Normal,No,n,n,1,602
1054,18,right,male,1,62,坏人,C.bmp,Normal,No,n,n,1,875
1054,18,right,male,1,63,坏人,S.bmp,Bad,Yes,m,m,1,582
1054,18,right,male,1,64,坏人,T.bmp,Good,No,n,n,1,742
1054,18,right,male,1,65,常人,C.bmp,Normal,Yes,m,m,1,535
1054,18,right,male,1,66,坏人,S.bmp,Bad,Yes,m,m,1,582
1054,18,right,male,1,67,常人,T.bmp,Good,No,n,n,1,591
1054,18,right,male,1,68,好人,S.bmp,Bad,No,n,n,1,751
1054,18,right,male,1,69,常人,C.bmp,Normal,Yes,m,m,1,571
1054,18,right,male,1,70,好人,T.bmp,Good,Yes,m,m,1,580
1054,18,right,male,1,71,好人,T.bmp,Good,Yes,m,m,1,665
1054,18,right,male,1,72,常人,S.bmp,Bad,No,n,n,1,685
1054,18,right,male,2,1,坏人,S.bmp,Bad,Yes,m,m,1,673
1054,18,right,male,2,2,坏人,T.bmp,Good,No,n,n,1,682
1054,18,right,male,2,3,好人,S.bmp,Bad,No,n,n,1,653
1054,18,right,male,2,4,常人,S.bmp,Bad,No,n,n,1,775
1054,18,right,male,2,5,好人,T.bmp,Good,Yes,m,m,1,596
1054,18,right,male,2,6,常人,C.bmp,Normal,Yes,m,m,1,605
1054,18,right,male,2,7,坏人,C.bmp,Normal,No,n,n,1,576
1054,18,right,male,2,8,坏人,S.bmp,Bad,Yes,m,m,1,624
1054,18,right,male,2,9,好人,T.bmp,Good,Yes,m,m,1,445
1054,18,right,male,2,10,常人,C.bmp,Normal,Yes,m,m,1,680
1054,18,right,male,2,11,常人,T.bmp,Good,No,n,n,1,651
1054,18,right,male,2,12,好人,C.bmp,Normal,No,n,n,1,547
1054,18,right,male,2,13,常人,C.bmp,Normal,Yes,m,m,1,755
1054,18,right,male,2,14,好人,S.bmp,Bad,No,n,n,1,764
1054,18,right,male,2,15,好人,C.bmp,Normal,No,n,n,1,623
1054,18,right,male,2,16,常人,T.bmp,Good,No,n,n,1,594
1054,18,right,male,2,17,坏人,C.bmp,Normal,No,n,n,1,678
1054,18,right,male,2,18,好人,T.bmp,Good,Yes,m,m,1,574
1054,18,right,male,2,19,常人,C.bmp,Normal,Yes,m,m,1,621
1054,18,right,male,2,20,坏人,T.bmp,Good,No,n,n,1,593
1054,18,right,male,2,21,好人,T.bmp,Good,Yes,m,m,1,602
1054,18,right,male,2,22,常人,S.bmp,Bad,No,n,n,1,763
1054,18,right,male,2,23,坏人,S.bmp,Bad,Yes,m,m,1,621
1054,18,right,male,2,24,坏人,S.bmp,Bad,Yes,m,n,0,593
1054,18,right,male,2,25,坏人,S.bmp,Bad,Yes,m,m,1,602
1054,18,right,male,2,26,常人,C.bmp,Normal,Yes,m,m,1,611
1054,18,right,male,2,27,好人,S.bmp,Bad,No,n,n,1,620
1054,18,right,male,2,28,坏人,S.bmp,Bad,Yes,m,m,1,629
1054,18,right,male,2,29,常人,T.bmp,Good,No,n,n,1,714
1054,18,right,male,2,30,坏人,C.bmp,Normal,No,n,n,1,723
1054,18,right,male,2,31,好人,T.bmp,Good,Yes,m,m,1,543
1054,18,right,male,2,32,常人,S.bmp,Bad,No,n,n,1,666
1054,18,right,male,2,33,常人,C.bmp,Normal,Yes,m,m,1,637
1054,18,right,male,2,34,好人,T.bmp,Good,Yes,m,m,1,608
1054,18,right,male,2,35,好人,C.bmp,Normal,No,n,n,1,629
1054,18,right,male,2,36,坏人,T.bmp,Good,No,n,n,1,676
1054,18,right,male,2,37,坏人,S.bmp,Bad,Yes,m,m,1,574
1054,18,right,male,2,38,坏人,C.bmp,Normal,No,n,n,1,629
1054,18,right,male,2,39,好人,S.bmp,Bad,No,n,m,0,639
1054,18,right,male,2,40,好人,C.bmp,Normal,No,n,n,1,836
1054,18,right,male,2,41,常人,C.bmp,Normal,Yes,m,m,1,695
1054,18,right,male,2,42,好人,T.bmp,Good,Yes,m,m,1,563
1054,18,right,male,2,43,坏人,T.bmp,Good,No,n,n,1,658
1054,18,right,male,2,44,常人,S.bmp,Bad,No,n,n,1,781
1054,18,right,male,2,45,坏人,S.bmp,Bad,Yes,m,m,1,602
1054,18,right,male,2,46,好人,T.bmp,Good,Yes,m,m,1,535
1054,18,right,male,2,47,常人,T.bmp,Good,No,n,n,1,620
1054,18,right,male,2,48,常人,C.bmp,Normal,Yes,m,m,1,742
1054,18,right,male,2,49,好人,S.bmp,Bad,No,n,n,1,639
1054,18,right,male,2,50,常人,S.bmp,Bad,No,n,n,1,724
1054,18,right,male,2,51,坏人,C.bmp,Normal,No,n,n,1,884
1054,18,right,male,2,52,坏人,S.bmp,Bad,Yes,m,m,1,629
1054,18,right,male,2,53,好人,T.bmp,Good,Yes,m,m,1,498
1054,18,right,male,2,54,常人,T.bmp,Good,No,n,n,1,658
1054,18,right,male,2,55,好人,C.bmp,Normal,No,n,n,1,630
1054,18,right,male,2,56,常人,C.bmp,Normal,Yes,m,m,1,601
1054,18,right,male,2,57,坏人,T.bmp,Good,No,n,n,1,912
1054,18,right,male,2,58,常人,C.bmp,Normal,Yes,m,m,1,770
1054,18,right,male,2,59,好人,T.bmp,Good,Yes,m,m,1,629
1054,18,right,male,2,60,坏人,S.bmp,Bad,Yes,m,m,1,563
1054,18,right,male,2,61,坏人,T.bmp,Good,No,n,n,1,685
1054,18,right,male,2,62,好人,S.bmp,Bad,No,n,n,1,694
1054,18,right,male,2,63,常人,C.bmp,Normal,Yes,m,m,1,667
1054,18,right,male,2,64,好人,T.bmp,Good,Yes,m,m,1,676
1054,18,right,male,2,65,坏人,C.bmp,Normal,No,n,n,1,686
1054,18,right,male,2,66,常人,S.bmp,Bad,No,n,n,1,808
1054,18,right,male,2,67,好人,T.bmp,Good,Yes,m,m,1,591
1054,18,right,male,2,68,常人,T.bmp,Good,No,n,n,1,638
1054,18,right,male,2,69,好人,C.bmp,Normal,No,n,n,1,647
1054,18,right,male,2,70,坏人,S.bmp,Bad,Yes,m,m,1,667
1054,18,right,male,2,71,常人,C.bmp,Normal,Yes,m,m,1,676
1054,18,right,male,2,72,坏人,S.bmp,Bad,Yes,m,m,1,799
1054,18,right,male,3,1,好人,T.bmp,Good,Yes,m,m,1,654
1054,18,right,male,3,2,常人,C.bmp,Normal,Yes,m,m,1,663
1054,18,right,male,3,3,常人,C.bmp,Normal,Yes,m,m,1,561
1054,18,right,male,3,4,常人,T.bmp,Good,No,n,n,1,645
1054,18,right,male,3,5,好人,C.bmp,Normal,No,n,n,1,655
1054,18,right,male,3,6,好人,S.bmp,Bad,No,n,n,1,788
1054,18,right,male,3,7,坏人,S.bmp,Bad,Yes,m,m,1,684
1054,18,right,male,3,8,坏人,S.bmp,Bad,Yes,m,m,1,580
1054,18,right,male,3,9,常人,S.bmp,Bad,No,n,n,1,703
1054,18,right,male,3,10,坏人,T.bmp,Good,No,n,n,1,637
1054,18,right,male,3,11,坏人,C.bmp,Normal,No,n,n,1,797
1054,18,right,male,3,12,好人,T.bmp,Good,Yes,m,m,1,542
1054,18,right,male,3,13,常人,C.bmp,Normal,Yes,m,m,1,740
1054,18,right,male,3,14,好人,T.bmp,Good,Yes,m,m,1,561
1054,18,right,male,3,15,坏人,S.bmp,Bad,Yes,m,m,1,571
1054,18,right,male,3,16,好人,S.bmp,Bad,No,n,n,1,580
1054,18,right,male,3,17,好人,T.bmp,Good,Yes,m,m,1,553
1054,18,right,male,3,18,常人,S.bmp,Bad,No,n,n,1,573
1054,18,right,male,3,19,坏人,T.bmp,Good,No,n,n,1,620
1054,18,right,male,3,20,坏人,C.bmp,Normal,No,n,n,1,629
1054,18,right,male,3,21,常人,T.bmp,Good,No,n,n,1,676
1054,18,right,male,3,22,坏人,S.bmp,Bad,Yes,m,m,1,686
1054,18,right,male,3,23,好人,C.bmp,Normal,No,n,n,1,733
1054,18,right,male,3,24,常人,C.bmp,Normal,Yes,m,m,1,742
1054,18,right,male,3,25,坏人,S.bmp,Bad,Yes,m,m,1,714
1054,18,right,male,3,26,常人,S.bmp,Bad,No,n,n,1,761
1054,18,right,male,3,27,坏人,T.bmp,Good,No,n,n,1,660
1054,18,right,male,3,28,常人,C.bmp,Normal,Yes,m,m,1,667
1054,18,right,male,3,29,坏人,C.bmp,Normal,No,n,n,1,639
1054,18,right,male,3,30,好人,T.bmp,Good,Yes,m,m,1,573
1054,18,right,male,3,31,常人,C.bmp,Normal,Yes,m,m,1,621
1054,18,right,male,3,32,好人,T.bmp,Good,Yes,m,m,1,668
1054,18,right,male,3,33,好人,S.bmp,Bad,No,n,n,1,602
1054,18,right,male,3,34,坏人,S.bmp,Bad,Yes,m,m,1,725
1054,18,right,male,3,35,常人,T.bmp,Good,No,n,n,1,734
1054,18,right,male,3,36,好人,C.bmp,Normal,No,n,n,1,706
1054,18,right,male,3,37,坏人,T.bmp,Good,No,n,n,1,603
1054,18,right,male,3,38,好人,T.bmp,Good,Yes,m,m,1,574
1054,18,right,male,3,39,坏人,S.bmp,Bad,Yes,m,m,1,659
1054,18,right,male,3,40,好人,S.bmp,Bad,No,n,n,1,717
1054,18,right,male,3,41,常人,S.bmp,Bad,No,n,n,1,661
1054,18,right,male,3,42,常人,C.bmp,Normal,Yes,m,m,1,595
1054,18,right,male,3,43,坏人,S.bmp,Bad,Yes,m,m,1,756
1054,18,right,male,3,44,好人,T.bmp,Good,Yes,m,m,1,578
1054,18,right,male,3,45,好人,C.bmp,Normal,No,n,n,1,700
1054,18,right,male,3,46,常人,T.bmp,Good,No,n,n,1,710
1054,18,right,male,3,47,常人,C.bmp,Normal,Yes,m,m,1,719
1054,18,right,male,3,48,坏人,C.bmp,Normal,No,n,n,1,729
1054,18,right,male,3,49,好人,T.bmp,Good,Yes,m,m,1,663
1054,18,right,male,3,50,常人,S.bmp,Bad,No,n,m,0,786
1054,18,right,male,3,51,好人,S.bmp,Bad,No,n,n,1,682
1054,18,right,male,3,52,坏人,S.bmp,Bad,Yes,m,m,1,729
1054,18,right,male,3,53,好人,T.bmp,Good,Yes,m,m,1,739
1054,18,right,male,3,54,常人,T.bmp,Good,No,n,n,1,597
1054,18,right,male,3,55,坏人,T.bmp,Good,No,n,m,0,682
1054,18,right,male,3,56,好人,C.bmp,Normal,No,n,n,1,729
1054,18,right,male,3,57,常人,C.bmp,Normal,Yes,m,m,1,664
1054,18,right,male,3,58,常人,C.bmp,Normal,Yes,m,m,1,674
1054,18,right,male,3,59,坏人,S.bmp,Bad,Yes,m,m,1,646
1054,18,right,male,3,60,坏人,C.bmp,Normal,No,n,n,1,769
1054,18,right,male,3,61,坏人,S.bmp,Bad,Yes,m,m,1,665
1054,18,right,male,3,62,好人,S.bmp,Bad,No,n,n,1,712
1054,18,right,male,3,63,坏人,S.bmp,Bad,Yes,m,m,1,657
1054,18,right,male,3,64,常人,S.bmp,Bad,No,n,n,1,779
1054,18,right,male,3,65,常人,C.bmp,Normal,Yes,m,m,1,563
1054,18,right,male,3,66,坏人,T.bmp,Good,No,n,n,1,648
1054,18,right,male,3,67,好人,C.bmp,Normal,No,n,n,1,657
1054,18,right,male,3,68,坏人,C.bmp,Normal,No,n,n,1,817
1054,18,right,male,3,69,常人,T.bmp,Good,No,n,n,1,638
1054,18,right,male,3,70,好人,T.bmp,Good,Yes,m,m,1,460
1054,18,right,male,3,71,常人,C.bmp,Normal,Yes,m,m,1,743
1054,18,right,male,3,72,好人,T.bmp,Good,Yes,m,m,1,641
1054,18,right,male,4,1,常人,C.bmp,Normal,Yes,m,m,1,838
1054,18,right,male,4,2,坏人,T.bmp,Good,No,n,n,1,669
1054,18,right,male,4,3,常人,C.bmp,Normal,Yes,m,m,1,565
1054,18,right,male,4,4,常人,T.bmp,Good,No,n,n,1,650
1054,18,right,male,4,5,常人,S.bmp,Bad,No,n,n,1,660
1054,18,right,male,4,6,好人,T.bmp,Good,Yes,m,m,1,594
1054,18,right,male,4,7,坏人,S.bmp,Bad,Yes,m,m,1,641
1054,18,right,male,4,8,坏人,S.bmp,Bad,Yes,m,m,1,576
1054,18,right,male,4,9,坏人,C.bmp,Normal,No,n,n,1,633
1054,18,right,male,4,10,好人,S.bmp,Bad,No,n,n,1,718
1054,18,right,male,4,11,好人,C.bmp,Normal,No,n,n,1,615
1054,18,right,male,4,12,好人,T.bmp,Good,Yes,m,m,1,588
1054,18,right,male,4,13,常人,C.bmp,Normal,Yes,m,m,1,673
1054,18,right,male,4,14,坏人,T.bmp,Good,No,n,m,0,607
1054,18,right,male,4,15,坏人,C.bmp,Normal,No,n,n,1,805
1054,18,right,male,4,16,常人,T.bmp,Good,No,n,n,1,777
1054,18,right,male,4,17,好人,T.bmp,Good,Yes,m,m,1,636
1054,18,right,male,4,18,好人,T.bmp,Good,Yes,m,n,0,758
1054,18,right,male,4,19,好人,C.bmp,Normal,No,n,n,1,692
1054,18,right,male,4,20,坏人,S.bmp,Bad,Yes,m,m,1,627
1054,18,right,male,4,21,好人,S.bmp,Bad,No,n,n,1,787
1054,18,right,male,4,22,常人,C.bmp,Normal,Yes,m,m,1,608
1054,18,right,male,4,23,坏人,S.bmp,Bad,Yes,m,m,1,731
1054,18,right,male,4,24,常人,S.bmp,Bad,No,n,n,1,638
1054,18,right,male,4,25,常人,T.bmp,Good,No,n,n,1,610
1054,18,right,male,4,26,好人,S.bmp,Bad,No,n,n,1,771
1054,18,right,male,4,27,常人,C.bmp,Normal,Yes,m,m,1,603
1054,18,right,male,4,28,坏人,C.bmp,Normal,No,n,n,1,726
1054,18,right,male,4,29,好人,T.bmp,Good,Yes,m,m,1,547
1054,18,right,male,4,30,坏人,S.bmp,Bad,Yes,m,m,1,670
1054,18,right,male,4,31,坏人,T.bmp,Good,No,n,n,1,641
1054,18,right,male,4,32,常人,S.bmp,Bad,No,n,n,1,764
1054,18,right,male,4,33,坏人,S.bmp,Bad,Yes,m,m,1,736
1054,18,right,male,4,34,常人,C.bmp,Normal,Yes,m,m,1,671
1054,18,right,male,4,35,好人,C.bmp,Normal,No,n,n,1,605
1054,18,right,male,4,36,好人,T.bmp,Good,Yes,m,m,1,577
1054,18,right,male,4,37,坏人,S.bmp,Bad,Yes,m,m,1,624
1054,18,right,male,4,38,常人,T.bmp,Good,No,n,n,1,672
1054,18,right,male,4,39,坏人,S.bmp,Bad,Yes,m,m,1,681
1054,18,right,male,4,40,好人,T.bmp,Good,Yes,m,m,1,552
1054,18,right,male,4,41,坏人,C.bmp,Normal,No,n,n,1,750
1054,18,right,male,4,42,好人,T.bmp,Good,Yes,m,m,1,647
1054,18,right,male,4,43,常人,C.bmp,Normal,Yes,m,m,1,543
1054,18,right,male,4,44,常人,S.bmp,Bad,No,n,n,1,628
1054,18,right,male,4,45,常人,C.bmp,Normal,Yes,m,m,1,789
1054,18,right,male,4,46,好人,C.bmp,Normal,No,n,n,1,799
1054,18,right,male,4,47,好人,S.bmp,Bad,No,n,n,1,846
1054,18,right,male,4,48,坏人,T.bmp,Good,No,n,n,1,716
1054,18,right,male,4,49,常人,C.bmp,Normal,Yes,m,m,1,688
1054,18,right,male,4,50,坏人,S.bmp,Bad,Yes,m,m,1,735
1054,18,right,male,4,51,常人,C.bmp,Normal,Yes,m,m,1,707
1054,18,right,male,4,52,常人,T.bmp,Good,No,n,n,1,604
1054,18,right,male,4,53,好人,S.bmp,Bad,No,n,n,1,728
1054,18,right,male,4,54,好人,T.bmp,Good,Yes,m,m,1,899
1054,18,right,male,4,55,好人,T.bmp,Good,Yes,m,m,1,607
1054,18,right,male,4,56,坏人,S.bmp,Bad,Yes,m,m,1,616
1054,18,right,male,4,57,坏人,C.bmp,Normal,No,n,n,1,702
1054,18,right,male,4,58,好人,C.bmp,Normal,No,n,n,1,674
1054,18,right,male,4,59,常人,S.bmp,Bad,No,n,n,1,721
1054,18,right,male,4,60,坏人,T.bmp,Good,No,n,n,1,731
1054,18,right,male,4,61,坏人,S.bmp,Bad,Yes,m,m,1,703
1054,18,right,male,4,62,好人,C.bmp,Normal,No,n,n,1,637
1054,18,right,male,4,63,常人,C.bmp,Normal,Yes,m,m,1,722
1054,18,right,male,4,64,坏人,C.bmp,Normal,No,n,n,1,732
1054,18,right,male,4,65,好人,T.bmp,Good,Yes,m,m,1,667
1054,18,right,male,4,66,好人,T.bmp,Good,Yes,m,n,0,639
1054,18,right,male,4,67,常人,C.bmp,Normal,Yes,m,m,1,649
1054,18,right,male,4,68,坏人,T.bmp,Good,No,n,n,1,772
1054,18,right,male,4,69,好人,S.bmp,Bad,No,n,n,1,707
1054,18,right,male,4,70,坏人,S.bmp,Bad,Yes,m,,0,0
1054,18,right,male,4,71,常人,T.bmp,Good,No,n,n,1,575
1054,18,right,male,4,72,常人,S.bmp,Bad,No,n,n,1,774
1054,18,right,male,5,1,好人,T.bmp,Good,Yes,m,m,1,670
1054,18,right,male,5,2,好人,T.bmp,Good,Yes,m,m,1,680
1054,18,right,male,5,3,常人,S.bmp,Bad,No,n,n,1,652
1054,18,right,male,5,4,常人,C.bmp,Normal,Yes,m,m,1,624
1054,18,right,male,5,5,坏人,C.bmp,Normal,No,n,n,1,785
1054,18,right,male,5,6,常人,C.bmp,Normal,Yes,m,m,1,870
1054,18,right,male,5,7,好人,C.bmp,Normal,No,n,n,1,617
1054,18,right,male,5,8,常人,T.bmp,Good,No,n,n,1,665
1054,18,right,male,5,9,坏人,T.bmp,Good,No,n,n,1,713
1054,18,right,male,5,10,坏人,S.bmp,Bad,Yes,m,m,1,609
1054,18,right,male,5,11,坏人,S.bmp,Bad,Yes,m,m,1,582
1054,18,right,male,5,12,好人,S.bmp,Bad,No,n,n,1,742
1054,18,right,male,5,13,好人,C.bmp,Normal,No,n,n,1,639
1054,18,right,male,5,14,坏人,S.bmp,Bad,Yes,m,m,1,724
1054,18,right,male,5,15,常人,S.bmp,Bad,No,n,n,1,583
1054,18,right,male,5,16,好人,S.bmp,Bad,No,n,n,1,744
1054,18,right,male,5,17,常人,T.bmp,Good,No,n,n,1,792
1054,18,right,male,5,18,好人,T.bmp,Good,Yes,m,m,1,613
1054,18,right,male,5,19,常人,C.bmp,Normal,Yes,m,m,1,736
1054,18,right,male,5,20,坏人,C.bmp,Normal,No,n,n,1,784
1054,18,right,male,5,21,好人,T.bmp,Good,Yes,m,m,1,644
1054,18,right,male,5,22,坏人,S.bmp,Bad,Yes,m,m,1,691
1054,18,right,male,5,23,常人,C.bmp,Normal,Yes,m,m,1,663
1054,18,right,male,5,24,坏人,T.bmp,Good,No,n,n,1,598
1054,18,right,male,5,25,坏人,S.bmp,Bad,Yes,m,m,1,683
1054,18,right,male,5,26,常人,T.bmp,Good,No,n,n,1,769
1054,18,right,male,5,27,好人,S.bmp,Bad,No,n,n,1,816
1054,18,right,male,5,28,坏人,T.bmp,Good,No,n,n,1,751
1054,18,right,male,5,29,好人,C.bmp,Normal,No,n,n,1,760
1054,18,right,male,5,30,坏人,C.bmp,Normal,No,n,n,1,743
1054,18,right,male,5,31,坏人,S.bmp,Bad,Yes,m,m,1,753
1054,18,right,male,5,32,好人,T.bmp,Good,Yes,m,m,1,537
1054,18,right,male,5,33,好人,T.bmp,Good,Yes,m,n,0,584
1054,18,right,male,5,34,常人,C.bmp,Normal,Yes,m,m,1,708
1054,18,right,male,5,35,常人,S.bmp,Bad,No,n,n,1,718
1054,18,right,male,5,36,常人,C.bmp,Normal,Yes,m,m,1,653
1054,18,right,male,5,37,坏人,S.bmp,Bad,Yes,m,m,1,625
1054,18,right,male,5,38,坏人,T.bmp,Good,No,n,n,1,721
1054,18,right,male,5,39,好人,T.bmp,Good,Yes,m,m,1,655
1054,18,right,male,5,40,好人,C.bmp,Normal,No,n,n,1,665
1054,18,right,male,5,41,常人,C.bmp,Normal,Yes,m,m,1,685
1054,18,right,male,5,42,坏人,C.bmp,Normal,No,n,n,1,771
1054,18,right,male,5,43,坏人,S.bmp,Bad,Yes,m,m,1,555
1054,18,right,male,5,44,常人,C.bmp,Normal,Yes,m,m,1,640
1054,18,right,male,5,45,常人,T.bmp,Good,No,n,n,1,612
1054,18,right,male,5,46,好人,S.bmp,Bad,No,n,n,1,811
1054,18,right,male,5,47,好人,T.bmp,Good,Yes,m,m,1,557
1054,18,right,male,5,48,常人,S.bmp,Bad,No,n,n,1,643
1054,18,right,male,5,49,坏人,C.bmp,Normal,No,n,n,1,578
1054,18,right,male,5,50,好人,C.bmp,Normal,No,n,n,1,701
1054,18,right,male,5,51,常人,C.bmp,Normal,Yes,m,m,1,673
1054,18,right,male,5,52,常人,T.bmp,Good,No,n,n,1,608
1054,18,right,male,5,53,常人,C.bmp,Normal,Yes,m,n,0,656
1054,18,right,male,5,54,好人,S.bmp,Bad,No,n,n,1,666
1054,18,right,male,5,55,好人,T.bmp,Good,Yes,m,m,1,611
1054,18,right,male,5,56,坏人,T.bmp,Good,No,n,n,1,809
1054,18,right,male,5,57,好人,T.bmp,Good,Yes,m,m,1,668
1054,18,right,male,5,58,坏人,S.bmp,Bad,Yes,m,m,1,641
1054,18,right,male,5,59,常人,S.bmp,Bad,No,n,n,1,673
1054,18,right,male,5,60,坏人,S.bmp,Bad,Yes,m,m,1,607
1054,18,right,male,5,61,常人,C.bmp,Normal,Yes,m,m,1,730
1054,18,right,male,5,62,坏人,T.bmp,Good,No,n,n,1,675
1054,18,right,male,5,63,好人,C.bmp,Normal,No,n,n,1,685
1054,18,right,male,5,64,坏人,S.bmp,Bad,Yes,m,m,1,620
1054,18,right,male,5,65,常人,T.bmp,Good,No,n,n,1,668
1054,18,right,male,5,66,好人,S.bmp,Bad,No,n,n,1,866
1054,18,right,male,5,67,常人,S.bmp,Bad,No,n,n,1,726
1054,18,right,male,5,68,坏人,S.bmp,Bad,Yes,m,m,1,736
1054,18,right,male,5,69,好人,T.bmp,Good,Yes,m,m,1,718
1054,18,right,male,5,70,好人,T.bmp,Good,Yes,m,m,1,879
1054,18,right,male,5,71,常人,C.bmp,Normal,Yes,m,m,1,815
1054,18,right,male,5,72,坏人,C.bmp,Normal,No,n,n,1,674
1054,18,right,male,6,1,常人,C.bmp,Normal,Yes,m,m,1,686
1054,18,right,male,6,2,常人,T.bmp,Good,No,n,n,1,620
