Subject,Age,Handedness,Sex,BlockList.Sample,SubTrial,Label,Target,Shape,YesNoResp,Target.CRESP,Target.RESP,Target.ACC,Target.RT
1,25,right,male,,1,好人,T.bmp,Good,Yes,n,,0,0
1,25,right,male,,2,坏人,S.bmp,Bad,Yes,n,,0,0
1,25,right,male,,3,常人,C.bmp,Normal,Yes,n,,0,0
1,25,right,male,,4,好人,T.bmp,Good,Yes,n,n,1,637
1,25,right,male,,5,好人,C.bmp,Normal,No,m,,0,0
1,25,right,male,,6,坏人,T.bmp,Good,No,m,n,0,597
1,25,right,male,,7,好人,S.bmp,Bad,No,m,n,0,1061
1,25,right,male,,8,坏人,C.bmp,Normal,No,m,,0,0
1,25,right,male,,9,常人,C.bmp,Normal,Yes,n,,0,0
1,25,right,male,,10,常人,T.bmp,Good,No,m,,0,0
1,25,right,male,,11,常人,S.bmp,Bad,No,m,,0,0
1,25,right,male,,12,坏人,S.bmp,Bad,Yes,n,,0,0
1,25,right,male,1,1,坏人,S.bmp,Bad,Yes,n,n,1,495
1,25,right,male,1,2,坏人,S.bmp,Bad,Yes,n,m,0,991
1,25,right,male,1,3,坏人,C.bmp,Normal,No,m,,0,0
1,25,right,male,1,4,好人,C.bmp,Normal,No,m,,0,0
1,25,right,male,1,5,好人,S.bmp,Bad,No,m,n,0,704
1,25,right,male,1,6,常人,C.bmp,Normal,Yes,n,,0,0
1,25,right,male,1,7,坏人,T.bmp,Good,No,m,,0,0
1,25,right,male,1,8,常人,C.bmp,Normal,Yes,n,n,1,1016
1,25,right,male,1,9,好人,T.bmp,Good,Yes,n,,0,0
1,25,right,male,1,10,常人,S.bmp,Bad,No,m,,0,0
1,25,right,male,1,11,好人,T.bmp,Good,Yes,n,,0,0
1,25,right,male,1,12,常人,T.bmp,Good,No,m,m,1,865
1,25,right,male,1,13,好人,T.bmp,Good,Yes,n,n,1,1049
1,25,right,male,1,14,常人,C.bmp,Normal,Yes,n,m,0,817
1,25,right,male,1,15,好人,T.bmp,Good,Yes,n,n,1,865
1,25,right,male,1,16,常人,S.bmp,Bad,No,m,m,1,1065
1,25,right,male,1,17,坏人,S.bmp,Bad,Yes,n,,0,0
1,25,right,male,1,18,坏人,C.bmp,Normal,No,m,,0,0
1,25,right,male,1,19,常人,C.bmp,Normal,Yes,n,n,1,953
1,25,right,male,1,20,坏人,T.bmp,Good,No,m,m,1,937
1,25,right,male,1,21,好人,C.bmp,Normal,No,m,,0,0
1,25,right,male,1,22,好人,S.bmp,Bad,No,m,n,0,775
1,25,right,male,1,23,坏人,S.bmp,Bad,Yes,n,,0,0
1,25,right,male,1,24,常人,T.bmp,Good,No,m,,0,0
1,25,right,male,1,25,坏人,S.bmp,Bad,Yes,n,,0,0
1,25,right,male,1,26,好人,T.bmp,Good,Yes,n,n,1,584
1,25,right,male,1,27,好人,C.bmp,Normal,No,m,,0,0
1,25,right,male,1,28,坏人,T.bmp,Good,No,m,n,0,856
1,25,right,male,1,29,坏人,C.bmp,Normal,No,m,m,1,792
1,25,right,male,1,30,常人,C.bmp,Normal,Yes,n,n,1,1008
1,25,right,male,1,31,好人,S.bmp,Bad,No,m,,0,0
1,25,right,male,1,32,好人,T.bmp,Good,Yes,n,n,1,633
1,25,right,male,1,33,常人,T.bmp,Good,No,m,m,1,913
1,25,right,male,1,34,坏人,S.bmp,Bad,Yes,n,m,0,1033
1,25,right,male,1,35,常人,C.bmp,Normal,Yes,n,n,1,993
1,25,right,male,1,36,常人,S.bmp,Bad,No,m,m,1,929
1,25,right,male,1,37,常人,T.bmp,Good,No,m,,0,0
1,25,right,male,1,38,常人,C.bmp,Normal,Yes,n,n,1,866
1,25,right,male,1,39,坏人,S.bmp,Bad,Yes,n,m,0,762
1,25,right,male,1,40,好人,C.bmp,Normal,No,m,n,0,730
1,25,right,male,1,41,坏人,S.bmp,Bad,Yes,n,,0,0
1,25,right,male,1,42,坏人,C.bmp,Normal,No,m,m,1,1010
1,25,right,male,1,43,常人,S.bmp,Bad,No,m,m,1,1098
1,25,right,male,1,44,常人,C.bmp,Normal,Yes,n,,0,0
1,25,right,male,1,45,好人,T.bmp,Good,Yes,n,n,1,592
1,25,right,male,1,46,好人,S.bmp,Bad,No,m,m,1,865
1,25,right,male,1,47,好人,T.bmp,Good,Yes,n,n,1,648
1,25,right,male,1,48,坏人,T.bmp,Good,No,m,m,1,776
1,25,right,male,1,49,常人,C.bmp,Normal,Yes,n,m,0,880
1,25,right,male,1,50,坏人,S.bmp,Bad,Yes,n,m,0,888
1,25,right,male,1,51,坏人,T.bmp,Good,No,m,n,0,777
1,25,right,male,1,52,好人,T.bmp,Good,Yes,n,n,1,641
1,25,right,male,1,53,坏人,S.bmp,Bad,Yes,n,,0,0
1,25,right,male,1,54,常人,T.bmp,Good,No,m,,0,0
1,25,right,male,1,55,好人,S.bmp,Bad,No,m,m,1,841
1,25,right,male,1,56,坏人,C.bmp,Normal,No,m,n,0,1097
1,25,right,male,1,57,常人,C.bmp,Normal,Yes,n,m,0,617
1,25,right,male,1,58,常人,S.bmp,Bad,No,m,,0,0
1,25,right,male,1,59,好人,T.bmp,Good,Yes,n,n,1,546
1,25,right,male,1,60,好人,C.bmp,Normal,No,m,m,1,866
1,25,right,male,2,1,常人,S.bmp,Bad,No,m,n,0,697
1,25,right,male,2,2,常人,T.bmp,Good,No,m,m,1,993
1,25,right,male,2,3,好人,T.bmp,Good,Yes,n,n,1,945
1,25,right,male,2,4,好人,S.bmp,Bad,No,m,,0,0
1,25,right,male,2,5,坏人,C.bmp,Normal,No,m,n,0,831
1,25,right,male,2,6,坏人,T.bmp,Good,No,m,m,1,896
1,25,right,male,2,7,常人,C.bmp,Normal,Yes,n,,0,0
1,25,right,male,2,8,常人,C.bmp,Normal,Yes,n,n,1,672
1,25,right,male,2,9,好人,T.bmp,Good,Yes,n,n,1,720
1,25,right,male,2,10,坏人,S.bmp,Bad,Yes,n,m,0,888
1,25,right,male,2,11,坏人,S.bmp,Bad,Yes,n,m,0,815
1,25,right,male,2,12,好人,C.bmp,Normal,No,m,,0,0
1,25,right,male,2,13,坏人,S.bmp,Bad,Yes,n,n,1,976
1,25,right,male,2,14,好人,C.bmp,Normal,No,m,m,1,752
1,25,right,male,2,15,坏人,C.bmp,Normal,No,m,m,1,864
1,25,right,male,2,16,坏人,S.bmp,Bad,Yes,n,n,1,784
1,25,right,male,2,17,常人,S.bmp,Bad,No,m,m,1,1024
1,25,right,male,2,18,好人,S.bmp,Bad,No,m,m,1,840
1,25,right,male,2,19,好人,T.bmp,Good,Yes,n,n,1,761
1,25,right,male,2,20,好人,T.bmp,Good,Yes,n,n,1,594
1,25,right,male,2,21,坏人,T.bmp,Good,No,m,n,0,811
1,25,right,male,2,22,常人,T.bmp,Good,No,m,n,0,659
1,25,right,male,2,23,常人,C.bmp,Normal,Yes,n,m,0,619
1,25,right,male,2,24,常人,C.bmp,Normal,Yes,n,,0,0
1,25,right,male,2,25,坏人,T.bmp,Good,No,m,n,0,731
1,25,right,male,2,26,好人,T.bmp,Good,Yes,n,n,1,676
1,25,right,male,2,27,坏人,S.bmp,Bad,Yes,n,m,0,780
1,25,right,male,2,28,坏人,C.bmp,Normal,No,m,,0,0
1,25,right,male,2,29,常人,S.bmp,Bad,No,m,m,1,724
1,25,right,male,2,30,常人,T.bmp,Good,No,m,m,1,836
1,25,right,male,2,31,好人,T.bmp,Good,Yes,n,n,1,716
1,25,right,male,2,32,坏人,S.bmp,Bad,Yes,n,n,1,980
1,25,right,male,2,33,好人,S.bmp,Bad,No,m,m,1,821
1,25,right,male,2,34,常人,C.bmp,Normal,Yes,n,m,0,1061
1,25,right,male,2,35,好人,C.bmp,Normal,No,m,,0,0
1,25,right,male,2,36,常人,C.bmp,Normal,Yes,n,n,1,429
1,25,right,male,2,37,坏人,S.bmp,Bad,Yes,n,m,0,621
1,25,right,male,2,38,好人,C.bmp,Normal,No,m,,0,0
1,25,right,male,2,39,常人,T.bmp,Good,No,m,n,0,467
1,25,right,male,2,40,常人,C.bmp,Normal,Yes,n,,0,0
1,25,right,male,2,41,好人,T.bmp,Good,Yes,n,n,1,427
1,25,right,male,2,42,坏人,C.bmp,Normal,No,m,m,1,643
1,25,right,male,2,43,好人,T.bmp,Good,Yes,n,n,1,611
1,25,right,male,2,44,好人,S.bmp,Bad,No,m,n,0,915
1,25,right,male,2,45,常人,C.bmp,Normal,Yes,n,,0,0
1,25,right,male,2,46,坏人,S.bmp,Bad,Yes,n,m,0,772
1,25,right,male,2,47,坏人,T.bmp,Good,No,m,,0,0
1,25,right,male,2,48,常人,S.bmp,Bad,No,m,m,1,724
1,25,right,male,2,49,常人,C.bmp,Normal,Yes,n,m,0,628
1,25,right,male,2,50,坏人,S.bmp,Bad,Yes,n,,0,0
1,25,right,male,2,51,常人,S.bmp,Bad,No,m,n,0,788
1,25,right,male,2,52,常人,C.bmp,Normal,Yes,n,m,0,708
1,25,right,male,2,53,坏人,T.bmp,Good,No,m,,0,0
1,25,right,male,2,54,坏人,S.bmp,Bad,Yes,n,m,0,709
1,25,right,male,2,55,常人,T.bmp,Good,No,m,m,1,965
1,25,right,male,2,56,好人,T.bmp,Good,Yes,n,n,1,509
1,25,right,male,2,57,坏人,C.bmp,Normal,No,m,n,0,717
1,25,right,male,2,58,好人,C.bmp,Normal,No,m,,0,0
1,25,right,male,2,59,好人,S.bmp,Bad,No,m,m,1,901
1,25,right,male,2,60,好人,T.bmp,Good,Yes,n,n,1,870
1,25,right,male,3,1,坏人,S.bmp,Bad,Yes,n,,0,0
1,25,right,male,3,2,好人,T.bmp,Good,Yes,n,n,1,641
1,25,right,male,3,3,常人,T.bmp,Good,No,m,m,1,984
1,25,right,male,3,4,好人,S.bmp,Bad,No,m,m,1,792
1,25,right,male,3,5,坏人,S.bmp,Bad,Yes,n,,0,0
1,25,right,male,3,6,常人,C.bmp,Normal,Yes,n,,0,0
1,25,right,male,3,7,好人,C.bmp,Normal,No,m,n,0,832
1,25,right,male,3,8,坏人,T.bmp,Good,No,m,n,0,1065
1,25,right,male,3,9,坏人,C.bmp,Normal,No,m,,0,0
1,25,right,male,3,10,常人,S.bmp,Bad,No,m,m,1,1009
1,25,right,male,3,11,好人,T.bmp,Good,Yes,n,n,1,561
1,25,right,male,3,12,常人,C.bmp,Normal,Yes,n,n,1,897
1,25,right,male,3,13,坏人,S.bmp,Bad,Yes,n,n,1,865
1,25,right,male,3,14,好人,S.bmp,Bad,No,m,,0,0
1,25,right,male,3,15,坏人,C.bmp,Normal,No,m,m,1,642
1,25,right,male,3,16,常人,T.bmp,Good,No,m,m,1,858
1,25,right,male,3,17,坏人,T.bmp,Good,No,m,m,1,754
1,25,right,male,3,18,好人,T.bmp,Good,Yes,n,n,1,738
1,25,right,male,3,19,常人,S.bmp,Bad,No,m,m,1,746
1,25,right,male,3,20,好人,T.bmp,Good,Yes,n,n,1,602
1,25,right,male,3,21,好人,C.bmp,Normal,No,m,n,0,643
1,25,right,male,3,22,常人,C.bmp,Normal,Yes,n,m,0,859
1,25,right,male,3,23,常人,C.bmp,Normal,Yes,n,n,1,931
1,25,right,male,3,24,坏人,S.bmp,Bad,Yes,n,m,0,899
1,25,right,male,3,25,常人,T.bmp,Good,No,m,n,0,643
1,25,right,male,3,26,坏人,T.bmp,Good,No,m,m,1,875
1,25,right,male,3,27,好人,T.bmp,Good,Yes,n,n,1,708
1,25,right,male,3,28,好人,C.bmp,Normal,No,m,m,1,692
1,25,right,male,3,29,常人,C.bmp,Normal,Yes,n,,0,0
1,25,right,male,3,30,好人,S.bmp,Bad,No,m,m,1,748
1,25,right,male,3,31,常人,C.bmp,Normal,Yes,n,,0,0
1,25,right,male,3,32,坏人,C.bmp,Normal,No,m,n,0,1028
1,25,right,male,3,33,坏人,S.bmp,Bad,Yes,n,n,1,804
1,25,right,male,3,34,坏人,S.bmp,Bad,Yes,n,m,0,620
1,25,right,male,3,35,常人,S.bmp,Bad,No,m,m,1,820
1,25,right,male,3,36,好人,T.bmp,Good,Yes,n,n,1,436
1,25,right,male,3,37,坏人,S.bmp,Bad,Yes,n,n,1,1004
1,25,right,male,3,38,坏人,T.bmp,Good,No,m,m,1,948
1,25,right,male,3,39,常人,C.bmp,Normal,Yes,n,n,1,780
1,25,right,male,3,40,常人,S.bmp,Bad,No,m,m,1,660
1,25,right,male,3,41,好人,S.bmp,Bad,No,m,m,1,757
1,25,right,male,3,42,常人,T.bmp,Good,No,m,m,1,885
1,25,right,male,3,43,坏人,S.bmp,Bad,Yes,n,n,1,1093
1,25,right,male,3,44,坏人,C.bmp,Normal,No,m,m,1,821
1,25,right,male,3,45,好人,C.bmp,Normal,No,m,n,0,549
1,25,right,male,3,46,好人,T.bmp,Good,Yes,n,n,1,469
1,25,right,male,3,47,常人,C.bmp,Normal,Yes,n,m,0,886
1,25,right,male,3,48,好人,T.bmp,Good,Yes,n,n,1,478
1,25,right,male,3,49,好人,S.bmp,Bad,No,m,m,1,726
1,25,right,male,3,50,坏人,S.bmp,Bad,Yes,n,n,1,838
1,25,right,male,3,51,常人,C.bmp,Normal,Yes,n,n,1,1054
1,25,right,male,3,52,好人,T.bmp,Good,Yes,n,n,1,502
1,25,right,male,3,53,坏人,S.bmp,Bad,Yes,n,n,1,854
1,25,right,male,3,54,坏人,T.bmp,Good,No,m,m,1,871
1,25,right,male,3,55,坏人,C.bmp,Normal,No,m,,0,0
1,25,right,male,3,56,好人,C.bmp,Normal,No,m,m,1,855
1,25,right,male,3,57,好人,T.bmp,Good,Yes,n,n,1,743
1,25,right,male,3,58,常人,S.bmp,Bad,No,m,m,1,1079
1,25,right,male,3,59,常人,C.bmp,Normal,Yes,n,n,1,919
1,25,right,male,3,60,常人,T.bmp,Good,No,m,m,1,623
1,25,right,male,4,1,坏人,S.bmp,Bad,Yes,n,m,0,618
1,25,right,male,4,2,常人,T.bmp,Good,No,m,n,0,731
1,25,right,male,4,3,常人,C.bmp,Normal,Yes,n,n,1,1004
1,25,right,male,4,4,常人,C.bmp,Normal,Yes,n,n,1,732
1,25,right,male,4,5,好人,T.bmp,Good,Yes,n,n,1,524
1,25,right,male,4,6,好人,C.bmp,Normal,No,m,n,0,492
1,25,right,male,4,7,常人,S.bmp,Bad,No,m,n,0,972
1,25,right,male,4,8,坏人,S.bmp,Bad,Yes,n,n,1,981
1,25,right,male,4,9,好人,T.bmp,Good,Yes,n,n,1,581
1,25,right,male,4,10,好人,S.bmp,Bad,No,m,m,1,781
1,25,right,male,4,11,坏人,C.bmp,Normal,No,m,n,0,717
1,25,right,male,4,12,坏人,T.bmp,Good,No,m,n,0,1021
1,25,right,male,4,13,好人,T.bmp,Good,Yes,n,n,1,469
1,25,right,male,4,14,好人,S.bmp,Bad,No,m,m,1,909
1,25,right,male,4,15,常人,C.bmp,Normal,Yes,n,n,1,1014
1,25,right,male,4,16,好人,C.bmp,Normal,No,m,m,1,974
1,25,right,male,4,17,好人,T.bmp,Good,Yes,n,n,1,574
1,25,right,male,4,18,常人,T.bmp,Good,No,m,m,1,902
1,25,right,male,4,19,坏人,S.bmp,Bad,Yes,n,n,1,806
1,25,right,male,4,20,坏人,C.bmp,Normal,No,m,m,1,774
1,25,right,male,4,21,常人,S.bmp,Bad,No,m,n,0,918
1,25,right,male,4,22,坏人,T.bmp,Good,No,m,n,0,520
1,25,right,male,4,23,坏人,S.bmp,Bad,Yes,n,n,1,745
1,25,right,male,4,24,常人,C.bmp,Normal,Yes,n,m,0,897
1,25,right,male,4,25,坏人,T.bmp,Good,No,m,m,1,801
1,25,right,male,4,26,好人,S.bmp,Bad,No,m,n,0,800
1,25,right,male,4,27,常人,T.bmp,Good,No,m,m,1,1096
1,25,right,male,4,28,常人,C.bmp,Normal,Yes,n,n,1,889
1,25,right,male,4,29,好人,T.bmp,Good,Yes,n,n,1,769
1,25,right,male,4,30,坏人,S.bmp,Bad,Yes,n,,0,0
1,25,right,male,4,31,常人,C.bmp,Normal,Yes,n,n,1,697
1,25,right,male,4,32,常人,S.bmp,Bad,No,m,m,1,849
1,25,right,male,4,33,坏人,S.bmp,Bad,Yes,n,m,0,969
1,25,right,male,4,34,坏人,C.bmp,Normal,No,m,m,1,801
1,25,right,male,4,35,好人,T.bmp,Good,Yes,n,n,1,554
1,25,right,male,4,36,好人,C.bmp,Normal,No,m,n,0,770
1,25,right,male,4,37,常人,S.bmp,Bad,No,m,,0,0
1,25,right,male,4,38,坏人,C.bmp,Normal,No,m,n,0,618
1,25,right,male,4,39,常人,C.bmp,Normal,Yes,n,n,1,970
1,25,right,male,4,40,好人,T.bmp,Good,Yes,n,n,1,474
1,25,right,male,4,41,坏人,S.bmp,Bad,Yes,n,n,1,754
1,25,right,male,4,42,好人,S.bmp,Bad,No,m,m,1,740
1,25,right,male,4,43,好人,T.bmp,Good,Yes,n,n,1,541
1,25,right,male,4,44,常人,C.bmp,Normal,Yes,n,m,0,709
1,25,right,male,4,45,好人,C.bmp,Normal,No,m,m,1,837
1,25,right,male,4,46,坏人,T.bmp,Good,No,m,n,0,997
1,25,right,male,4,47,坏人,S.bmp,Bad,Yes,n,,0,0
1,25,right,male,4,48,常人,T.bmp,Good,No,m,m,1,734
1,25,right,male,4,49,坏人,C.bmp,Normal,No,m,,0,0
1,25,right,male,4,50,好人,T.bmp,Good,Yes,n,n,1,542
1,25,right,male,4,51,坏人,S.bmp,Bad,Yes,n,n,1,934
1,25,right,male,4,52,好人,S.bmp,Bad,No,m,m,1,758
1,25,right,male,4,53,坏人,T.bmp,Good,No,m,m,1,710
1,25,right,male,4,54,常人,S.bmp,Bad,No,m,n,0,958
1,25,right,male,4,55,常人,T.bmp,Good,No,m,m,1,1039
1,25,right,male,4,56,常人,C.bmp,Normal,Yes,n,n,1,926
1,25,right,male,4,57,常人,C.bmp,Normal,Yes,n,m,0,630
1,25,right,male,4,58,好人,T.bmp,Good,Yes,n,n,1,622
1,25,right,male,4,59,好人,C.bmp,Normal,No,m,m,1,774
1,25,right,male,4,60,坏人,S.bmp,Bad,Yes,n,n,1,1022
1,25,right,male,5,1,好人,S.bmp,Bad,No,m,m,1,679
1,25,right,male,5,2,坏人,T.bmp,Good,No,m,m,1,736
1,25,right,male,5,3,好人,C.bmp,Normal,No,m,m,1,752
1,25,right,male,5,4,常人,C.bmp,Normal,Yes,n,n,1,864
1,25,right,male,5,5,常人,T.bmp,Good,No,m,m,1,848
1,25,right,male,5,6,好人,T.bmp,Good,Yes,n,n,1,672
1,25,right,male,5,7,常人,S.bmp,Bad,No,m,m,1,832
1,25,right,male,5,8,常人,C.bmp,Normal,Yes,n,n,1,888
1,25,right,male,5,9,坏人,C.bmp,Normal,No,m,m,1,641
1,25,right,male,5,10,坏人,S.bmp,Bad,Yes,n,n,1,753
1,25,right,male,5,11,好人,T.bmp,Good,Yes,n,n,1,641
1,25,right,male,5,12,坏人,S.bmp,Bad,Yes,n,n,1,625
1,25,right,male,5,13,坏人,S.bmp,Bad,Yes,n,m,0,721
1,25,right,male,5,14,常人,S.bmp,Bad,No,m,,0,0
1,25,right,male,5,15,好人,C.bmp,Normal,No,m,,0,0
1,25,right,male,5,16,坏人,T.bmp,Good,No,m,m,1,778
1,25,right,male,5,17,常人,C.bmp,Normal,Yes,n,n,1,594
1,25,right,male,5,18,常人,T.bmp,Good,No,m,m,1,602
1,25,right,male,5,19,坏人,C.bmp,Normal,No,m,n,0,818
1,25,right,male,5,20,好人,T.bmp,Good,Yes,n,n,1,641
1,25,right,male,5,21,常人,C.bmp,Normal,Yes,n,n,1,1001
1,25,right,male,5,22,坏人,S.bmp,Bad,Yes,n,m,0,602
1,25,right,male,5,23,好人,T.bmp,Good,Yes,n,n,1,562
1,25,right,male,5,24,好人,S.bmp,Bad,No,m,m,1,826
1,25,right,male,5,25,好人,T.bmp,Good,Yes,n,n,1,778
1,25,right,male,5,26,好人,T.bmp,Good,Yes,n,n,1,642
1,25,right,male,5,27,好人,S.bmp,Bad,No,m,m,1,722
1,25,right,male,5,28,常人,C.bmp,Normal,Yes,n,n,1,770
1,25,right,male,5,29,坏人,C.bmp,Normal,No,m,m,1,675
1,25,right,male,5,30,常人,C.bmp,Normal,Yes,n,n,1,707
1,25,right,male,5,31,常人,T.bmp,Good,No,m,m,1,747
1,25,right,male,5,32,常人,S.bmp,Bad,No,m,n,0,851
1,25,right,male,5,33,坏人,S.bmp,Bad,Yes,n,n,1,603
1,25,right,male,5,34,坏人,T.bmp,Good,No,m,m,1,835
1,25,right,male,5,35,好人,C.bmp,Normal,No,m,n,0,604
1,25,right,male,5,36,坏人,S.bmp,Bad,Yes,n,m,0,845
1,25,right,male,5,37,坏人,S.bmp,Bad,Yes,n,n,1,630
1,25,right,male,5,38,常人,T.bmp,Good,No,m,m,1,670
1,25,right,male,5,39,常人,C.bmp,Normal,Yes,n,n,1,662
1,25,right,male,5,40,好人,S.bmp,Bad,No,m,m,1,694
1,25,right,male,5,41,坏人,T.bmp,Good,No,m,m,1,782
1,25,right,male,5,42,好人,C.bmp,Normal,No,m,n,0,615
1,25,right,male,5,43,好人,T.bmp,Good,Yes,n,n,1,551
1,25,right,male,5,44,坏人,S.bmp,Bad,Yes,n,n,1,855
1,25,right,male,5,45,好人,T.bmp,Good,Yes,n,n,1,775
1,25,right,male,5,46,常人,C.bmp,Normal,Yes,n,n,1,871
1,25,right,male,5,47,坏人,C.bmp,Normal,No,m,m,1,823
1,25,right,male,5,48,常人,S.bmp,Bad,No,m,m,1,1031
1,25,right,male,5,49,常人,C.bmp,Normal,Yes,n,n,1,736
1,25,right,male,5,50,常人,T.bmp,Good,No,m,m,1,719
1,25,right,male,5,51,好人,S.bmp,Bad,No,m,n,0,503
1,25,right,male,5,52,好人,T.bmp,Good,Yes,n,n,1,495
1,25,right,male,5,53,坏人,C.bmp,Normal,No,m,m,1,735
1,25,right,male,5,54,坏人,S.bmp,Bad,Yes,n,n,1,607
1,25,right,male,5,55,常人,S.bmp,Bad,No,m,m,1,800
1,25,right,male,5,56,好人,T.bmp,Good,Yes,n,n,1,441
1,25,right,male,5,57,坏人,S.bmp,Bad,Yes,n,n,1,850
1,25,right,male,5,58,坏人,T.bmp,Good,No,m,m,1,874
1,25,right,male,5,59,好人,C.bmp,Normal,No,m,n,0,914
1,25,right,male,5,60,常人,C.bmp,Normal,Yes,n,n,1,706
1,25,right,male,6,1,常人,S.bmp,Bad,No,m,,0,0
1,25,right,male,6,2,好人,C.bmp,Normal,No,m,m,1,834
1,25,right,male,6,3,坏人,T.bmp,Good,No,m,m,1,954
1,25,right,male,6,4,坏人,C.bmp,Normal,No,m,m,1,922
1,25,right,male,6,5,常人,T.bmp,Good,No,m,m,1,770
1,25,right,male,6,6,好人,T.bmp,Good,Yes,n,m,0,642
1,25,right,male,6,7,好人,S.bmp,Bad,No,m,m,1,866
1,25,right,male,6,8,常人,C.bmp,Normal,Yes,n,n,1,834
1,25,right,male,6,9,常人,C.bmp,Normal,Yes,n,n,1,555
1,25,right,male,6,10,好人,T.bmp,Good,Yes,n,n,1,675
1,25,right,male,6,11,坏人,S.bmp,Bad,Yes,n,n,1,651
1,25,right,male,6,12,坏人,S.bmp,Bad,Yes,n,m,0,899
1,25,right,male,6,13,常人,S.bmp,Bad,No,m,m,1,754
1,25,right,male,6,14,坏人,S.bmp,Bad,Yes,n,n,1,786
1,25,right,male,6,15,好人,T.bmp,Good,Yes,n,n,1,578
1,25,right,male,6,16,坏人,S.bmp,Bad,Yes,n,n,1,707
1,25,right,male,6,17,好人,T.bmp,Good,Yes,n,n,1,691
1,25,right,male,6,18,好人,C.bmp,Normal,No,m,m,1,747
1,25,right,male,6,19,坏人,T.bmp,Good,No,m,m,1,1059
1,25,right,male,6,20,坏人,C.bmp,Normal,No,m,,0,0
1,25,right,male,6,21,常人,C.bmp,Normal,Yes,n,n,1,683
1,25,right,male,6,22,常人,C.bmp,Normal,Yes,n,n,1,444
1,25,right,male,6,23,常人,T.bmp,Good,No,m,m,1,660
1,25,right,male,6,24,好人,S.bmp,Bad,No,m,m,1,676
1,25,right,male,6,25,常人,S.bmp,Bad,No,m,n,0,796
1,25,right,male,6,26,坏人,T.bmp,Good,No,m,n,0,748
1,25,right,male,6,27,坏人,C.bmp,Normal,No,m,m,1,1004
1,25,right,male,6,28,好人,S.bmp,Bad,No,m,m,1,756
1,25,right,male,6,29,坏人,S.bmp,Bad,Yes,n,n,1,933
1,25,right,male,6,30,好人,T.bmp,Good,Yes,n,n,1,685
1,25,right,male,6,31,常人,T.bmp,Good,No,m,m,1,1085
1,25,right,male,6,32,好人,C.bmp,Normal,No,m,m,1,773
1,25,right,male,6,33,坏人,S.bmp,Bad,Yes,n,n,1,813
1,25,right,male,6,34,好人,T.bmp,Good,Yes,n,n,1,645
1,25,right,male,6,35,常人,C.bmp,Normal,Yes,n,m,0,797
1,25,right,male,6,36,常人,C.bmp,Normal,Yes,n,n,1,606
1,25,right,male,6,37,坏人,C.bmp,Normal,No,m,m,1,822
1,25,right,male,6,38,常人,C.bmp,Normal,Yes,n,n,1,1078
1,25,right,male,6,39,坏人,S.bmp,Bad,Yes,n,n,1,958
1,25,right,male,6,40,常人,T.bmp,Good,No,m,m,1,694
1,25,right,male,6,41,好人,T.bmp,Good,Yes,n,n,1,694
1,25,right,male,6,42,好人,S.bmp,Bad,No,m,m,1,1054
1,25,right,male,6,43,常人,S.bmp,Bad,No,m,m,1,719
1,25,right,male,6,44,常人,C.bmp,Normal,Yes,n,n,1,630
1,25,right,male,6,45,好人,T.bmp,Good,Yes,n,n,1,718
1,25,right,male,6,46,好人,C.bmp,Normal,No,m,m,1,846
1,25,right,male,6,47,坏人,T.bmp,Good,No,m,m,1,718
1,25,right,male,6,48,坏人,S.bmp,Bad,Yes,n,m,0,702
1,25,right,male,6,49,好人,C.bmp,Normal,No,m,n,0,679
1,25,right,male,6,50,好人,S.bmp,Bad,No,m,m,1,887
1,25,right,male,6,51,常人,S.bmp,Bad,No,m,m,1,951
1,25,right,male,6,52,常人,C.bmp,Normal,Yes,n,n,1,639
1,25,right,male,6,53,好人,T.bmp,Good,Yes,n,n,1,543
1,25,right,male,6,54,常人,C.bmp,Normal,Yes,n,n,1,1063
1,25,right,male,6,55,坏人,C.bmp,Normal,No,m,m,1,592
1,25,right,male,6,56,坏人,S.bmp,Bad,Yes,n,n,1,704
1,25,right,male,6,57,坏人,S.bmp,Bad,Yes,n,n,1,576
1,25,right,male,6,58,好人,T.bmp,Good,Yes,n,n,1,616
1,25,right,male,6,59,常人,T.bmp,Good,No,m,m,1,808
1,25,right,male,6,60,坏人,T.bmp,Good,No,m,n,0,656
10,24,right,female,,1,好人,S.bmp,Bad,No,n,,0,0
10,24,right,female,,2,坏人,S.bmp,Bad,Yes,m,,0,0
10,24,right,female,,3,好人,C.bmp,Normal,No,n,,0,0
10,24,right,female,,4,坏人,C.bmp,Normal,No,n,,0,0
10,24,right,female,,5,坏人,S.bmp,Bad,Yes,m,,0,0
10,24,right,female,,6,常人,C.bmp,Normal,Yes,m,,0,0
10,24,right,female,,7,常人,T.bmp,Good,No,n,,0,0
10,24,right,female,,8,常人,C.bmp,Normal,Yes,m,n,0,118
10,24,right,female,,9,常人,S.bmp,Bad,No,n,,0,0
10,24,right,female,,10,好人,T.bmp,Good,Yes,m,,0,0
10,24,right,female,,11,坏人,T.bmp,Good,No,n,,0,0
10,24,right,female,,12,好人,T.bmp,Good,Yes,m,,0,0
10,24,right,female,,13,好人,S.bmp,Bad,No,n,,0,0
10,24,right,female,,14,常人,S.bmp,Bad,No,n,n,1,15
10,24,right,female,,15,坏人,T.bmp,Good,No,n,,0,0
10,24,right,female,,16,坏人,S.bmp,Bad,Yes,m,m,1,168
10,24,right,female,,17,常人,C.bmp,Normal,Yes,m,,0,0
10,24,right,female,,18,好人,T.bmp,Good,Yes,m,n,0,984
10,24,right,female,,19,坏人,C.bmp,Normal,No,n,,0,0
10,24,right,female,,20,坏人,S.bmp,Bad,Yes,m,,0,0
10,24,right,female,,21,好人,T.bmp,Good,Yes,m,,0,0
10,24,right,female,,22,常人,C.bmp,Normal,Yes,m,,0,0
10,24,right,female,,23,好人,C.bmp,Normal,No,n,,0,0
10,24,right,female,,24,常人,T.bmp,Good,No,n,,0,0
10,24,right,female,,25,坏人,T.bmp,Good,No,n,n,1,1045
10,24,right,female,,26,坏人,S.bmp,Bad,Yes,m,n,0,1029
10,24,right,female,,27,常人,T.bmp,Good,No,n,m,0,1013
10,24,right,female,,28,好人,T.bmp,Good,Yes,m,,0,0
10,24,right,female,,29,常人,S.bmp,Bad,No,n,,0,0
10,24,right,female,,30,好人,T.bmp,Good,Yes,m,,0,0
10,24,right,female,,31,常人,C.bmp,Normal,Yes,m,n,0,774
10,24,right,female,,32,坏人,S.bmp,Bad,Yes,m,,0,0
10,24,right,female,,33,好人,S.bmp,Bad,No,n,,0,0
10,24,right,female,,34,常人,C.bmp,Normal,Yes,m,,0,0
10,24,right,female,,35,坏人,C.bmp,Normal,No,n,n,1,886
10,24,right,female,,36,好人,C.bmp,Normal,No,n,m,0,1094
10,24,right,female,,37,好人,T.bmp,Good,Yes,m,,0,0
10,24,right,female,,38,坏人,S.bmp,Bad,Yes,m,n,0,1048
10,24,right,female,,39,常人,T.bmp,Good,No,n,,0,0
10,24,right,female,,40,常人,C.bmp,Normal,Yes,m,,0,0
10,24,right,female,,41,常人,S.bmp,Bad,No,n,,0,0
10,24,right,female,,42,好人,S.bmp,Bad,No,n,,0,0
10,24,right,female,,43,坏人,T.bmp,Good,No,n,n,1,911
10,24,right,female,,44,坏人,C.bmp,Normal,No,n,,0,0
10,24,right,female,,45,好人,C.bmp,Normal,No,n,m,0,616
10,24,right,female,,46,坏人,S.bmp,Bad,Yes,m,n,0,888
10,24,right,female,,47,常人,C.bmp,Normal,Yes,m,,0,0
10,24,right,female,,48,好人,T.bmp,Good,Yes,m,,0,0
10,24,right,female,,49,坏人,T.bmp,Good,No,n,m,0,403
10,24,right,female,,50,坏人,S.bmp,Bad,Yes,m,m,1,812
10,24,right,female,,51,坏人,S.bmp,Bad,Yes,m,,0,0
10,24,right,female,,52,常人,C.bmp,Normal,Yes,m,n,0,572
10,24,right,female,,53,常人,C.bmp,Normal,Yes,m,m,1,572
10,24,right,female,,54,好人,S.bmp,Bad,No,n,,0,0
10,24,right,female,,55,好人,T.bmp,Good,Yes,m,,0,0
10,24,right,female,,56,常人,S.bmp,Bad,No,n,m,0,581
10,24,right,female,,57,常人,T.bmp,Good,No,n,n,1,757
10,24,right,female,,58,坏人,C.bmp,Normal,No,n,m,0,917
10,24,right,female,,59,好人,T.bmp,Good,Yes,m,,0,0
10,24,right,female,,60,好人,C.bmp,Normal,No,n,n,1,405
10,24,right,female,,61,常人,C.bmp,Normal,Yes,m,,0,0
10,24,right,female,,62,常人,C.bmp,Normal,Yes,m,,0,0
10,24,right,female,,63,坏人,C.bmp,Normal,No,n,,0,0
10,24,right,female,,64,好人,C.bmp,Normal,No,n,,0,0
10,24,right,female,,65,好人,S.bmp,Bad,No,n,,0,0
10,24,right,female,,66,常人,T.bmp,Good,No,n,,0,0
10,24,right,female,,67,坏人,S.bmp,Bad,Yes,m,,0,0
10,24,right,female,,68,好人,T.bmp,Good,Yes,m,,0,0
10,24,right,female,,69,好人,T.bmp,Good,Yes,m,,0,0
10,24,right,female,,70,常人,S.bmp,Bad,No,n,,0,0
10,24,right,female,,71,坏人,S.bmp,Bad,Yes,m,,0,0
10,24,right,female,,72,坏人,T.bmp,Good,No,n,,0,0
10,24,right,female,,73,好人,C.bmp,Normal,No,n,m,0,1097
10,24,right,female,,74,常人,C.bmp,Normal,Yes,m,,0,0
10,24,right,female,,75,好人,S.bmp,Bad,No,n,n,1,799
10,24,right,female,,76,坏人,S.bmp,Bad,Yes,m,m,1,928
10,24,right,female,,77,常人,C.bmp,Normal,Yes,m,n,0,855
10,24,right,female,,78,好人,T.bmp,Good,Yes,m,,0,0
10,24,right,female,,79,常人,T.bmp,Good,No,n,n,1,767
10,24,right,female,,80,坏人,S.bmp,Bad,Yes,m,,0,0
10,24,right,female,,81,好人,T.bmp,Good,Yes,m,m,1,631
10,24,right,female,,82,常人,S.bmp,Bad,No,n,m,0,928
10,24,right,female,,83,坏人,C.bmp,Normal,No,n,n,1,568
10,24,right,female,,84,坏人,T.bmp,Good,No,n,,0,0
10,24,right,female,,85,常人,C.bmp,Normal,Yes,m,n,0,925
10,24,right,female,,86,好人,C.bmp,Normal,No,n,,0,0
10,24,right,female,,87,常人,T.bmp,Good,No,n,m,0,763
10,24,right,female,,88,常人,C.bmp,Normal,Yes,m,n,0,676
10,24,right,female,,89,好人,T.bmp,Good,Yes,m,,0,0
10,24,right,female,,90,坏人,S.bmp,Bad,Yes,m,,0,0
10,24,right,female,,91,好人,T.bmp,Good,Yes,m,,0,0
10,24,right,female,,92,常人,S.bmp,Bad,No,n,,0,0
10,24,right,female,,93,坏人,S.bmp,Bad,Yes,m,m,1,947
10,24,right,female,,94,坏人,C.bmp,Normal,No,n,m,0,988
10,24,right,female,,95,坏人,T.bmp,Good,No,n,n,1,812
10,24,right,female,,96,好人,S.bmp,Bad,No,n,m,0,812
10,24,right,female,,97,常人,C.bmp,Normal,Yes,m,,0,0
10,24,right,female,,98,好人,S.bmp,Bad,No,n,n,1,623
10,24,right,female,,99,好人,T.bmp,Good,Yes,m,n,0,503
10,24,right,female,,100,常人,S.bmp,Bad,No,n,m,0,775
10,24,right,female,,101,坏人,S.bmp,Bad,Yes,m,m,1,799
10,24,right,female,,102,常人,C.bmp,Normal,Yes,m,m,1,647
10,24,right,female,,103,常人,T.bmp,Good,No,n,n,1,983
10,24,right,female,,104,坏人,S.bmp,Bad,Yes,m,,0,0
10,24,right,female,,105,坏人,C.bmp,Normal,No,n,m,0,880
10,24,right,female,,106,好人,T.bmp,Good,Yes,m,m,1,760
10,24,right,female,,107,坏人,T.bmp,Good,No,n,n,1,720
10,24,right,female,,108,好人,C.bmp,Normal,No,n,n,1,864
10,24,right,female,,109,常人,C.bmp,Normal,Yes,m,m,1,842
10,24,right,female,,110,坏人,S.bmp,Bad,Yes,m,n,0,834
10,24,right,female,,111,好人,T.bmp,Good,Yes,m,m,1,834
10,24,right,female,,112,好人,S.bmp,Bad,No,n,n,1,642
10,24,right,female,,113,好人,C.bmp,Normal,No,n,m,0,459
10,24,right,female,,114,坏人,C.bmp,Normal,No,n,n,1,1091
10,24,right,female,,115,坏人,T.bmp,Good,No,n,,0,0
10,24,right,female,,116,常人,T.bmp,Good,No,n,n,1,451
10,24,right,female,,117,好人,T.bmp,Good,Yes,m,m,1,787
10,24,right,female,,118,常人,S.bmp,Bad,No,n,n,1,643
10,24,right,female,,119,坏人,S.bmp,Bad,Yes,m,n,0,612
10,24,right,female,,120,常人,C.bmp,Normal,Yes,m,m,1,740
10,24,right,female,1,1,常人,T.bmp,Good,No,n,,0,0
10,24,right,female,1,2,坏人,S.bmp,Bad,Yes,m,m,1,986
10,24,right,female,1,3,坏人,T.bmp,Good,No,n,n,1,635
10,24,right,female,1,4,常人,C.bmp,Normal,Yes,m,m,1,939
10,24,right,female,1,5,好人,T.bmp,Good,Yes,m,n,0,803
10,24,right,female,1,6,好人,T.bmp,Good,Yes,m,m,1,795
10,24,right,female,1,7,坏人,S.bmp,Bad,Yes,m,m,1,811
10,24,right,female,1,8,常人,C.bmp,Normal,Yes,m,m,1,403
10,24,right,female,1,9,坏人,C.bmp,Normal,No,n,n,1,668
10,24,right,female,1,10,常人,S.bmp,Bad,No,n,m,0,724
10,24,right,female,1,11,好人,C.bmp,Normal,No,n,,0,0
10,24,right,female,1,12,好人,S.bmp,Bad,No,n,m,0,772
10,24,right,female,1,13,坏人,S.bmp,Bad,Yes,m,,0,0
10,24,right,female,1,14,常人,C.bmp,Normal,Yes,m,n,0,322
10,24,right,female,1,15,好人,T.bmp,Good,Yes,m,,0,0
10,24,right,female,1,16,常人,T.bmp,Good,No,n,m,0,467
10,24,right,female,1,17,坏人,C.bmp,Normal,No,n,m,0,955
10,24,right,female,1,18,常人,S.bmp,Bad,No,n,n,1,459
10,24,right,female,1,19,坏人,S.bmp,Bad,Yes,m,,0,0
10,24,right,female,1,20,好人,C.bmp,Normal,No,n,n,1,442
10,24,right,female,1,21,好人,T.bmp,Good,Yes,m,n,0,875
10,24,right,female,1,22,常人,C.bmp,Normal,Yes,m,m,1,731
10,24,right,female,1,23,坏人,T.bmp,Good,No,n,n,1,1035
10,24,right,female,1,24,好人,S.bmp,Bad,No,n,m,0,907
10,24,right,female,1,25,好人,T.bmp,Good,Yes,m,m,1,715
10,24,right,female,1,26,常人,C.bmp,Normal,Yes,m,m,1,379
10,24,right,female,1,27,好人,T.bmp,Good,Yes,m,m,1,892
10,24,right,female,1,28,坏人,T.bmp,Good,No,n,n,1,716
10,24,right,female,1,29,常人,C.bmp,Normal,Yes,m,m,1,732
10,24,right,female,1,30,坏人,C.bmp,Normal,No,n,n,1,732
10,24,right,female,1,31,好人,S.bmp,Bad,No,n,m,0,724
10,24,right,female,1,32,好人,C.bmp,Normal,No,n,m,0,644
10,24,right,female,1,33,常人,S.bmp,Bad,No,n,m,0,917
10,24,right,female,1,34,常人,T.bmp,Good,No,n,n,1,509
10,24,right,female,1,35,坏人,S.bmp,Bad,Yes,m,n,0,541
10,24,right,female,1,36,坏人,S.bmp,Bad,Yes,m,m,1,549
10,24,right,female,1,37,好人,T.bmp,Good,Yes,m,m,1,725
10,24,right,female,1,38,坏人,C.bmp,Normal,No,n,m,0,461
10,24,right,female,1,39,常人,S.bmp,Bad,No,n,n,1,1046
10,24,right,female,1,40,常人,C.bmp,Normal,Yes,m,m,1,670
10,24,right,female,1,41,坏人,S.bmp,Bad,Yes,m,n,0,901
10,24,right,female,1,42,好人,C.bmp,Normal,No,n,m,0,605
10,24,right,female,1,43,坏人,S.bmp,Bad,Yes,m,m,1,829
10,24,right,female,1,44,常人,T.bmp,Good,No,n,n,1,933
10,24,right,female,1,45,常人,C.bmp,Normal,Yes,m,m,1,558
10,24,right,female,1,46,好人,T.bmp,Good,Yes,m,n,0,798
10,24,right,female,1,47,好人,S.bmp,Bad,No,n,,0,0
10,24,right,female,1,48,坏人,T.bmp,Good,No,n,n,1,990
10,24,right,female,1,49,好人,S.bmp,Bad,No,n,n,1,958
10,24,right,female,1,50,坏人,S.bmp,Bad,Yes,m,,0,0
10,24,right,female,1,51,常人,C.bmp,Normal,Yes,m,m,1,533
10,24,right,female,1,52,常人,C.bmp,Normal,Yes,m,m,1,437
10,24,right,female,1,53,常人,S.bmp,Bad,No,n,n,1,709
10,24,right,female,1,54,好人,T.bmp,Good,Yes,m,m,1,1005
10,24,right,female,1,55,坏人,T.bmp,Good,No,n,n,1,717
10,24,right,female,1,56,常人,T.bmp,Good,No,n,,0,0
10,24,right,female,1,57,坏人,C.bmp,Normal,No,n,n,1,957
10,24,right,female,1,58,好人,C.bmp,Normal,No,n,m,0,638
10,24,right,female,1,59,好人,T.bmp,Good,Yes,m,n,0,606
10,24,right,female,1,60,坏人,S.bmp,Bad,Yes,m,m,1,846
10,24,right,female,2,1,好人,C.bmp,Normal,No,n,,0,0
10,24,right,female,2,2,坏人,S.bmp,Bad,Yes,m,,0,0
10,24,right,female,2,3,常人,C.bmp,Normal,Yes,m,m,1,544
10,24,right,female,2,4,常人,T.bmp,Good,No,n,n,1,681
10,24,right,female,2,5,坏人,C.bmp,Normal,No,n,n,1,857
10,24,right,female,2,6,好人,T.bmp,Good,Yes,m,,0,0
10,24,right,female,2,7,常人,S.bmp,Bad,No,n,n,1,713
10,24,right,female,2,8,好人,T.bmp,Good,Yes,m,n,0,921
10,24,right,female,2,9,常人,C.bmp,Normal,Yes,m,m,1,681
10,24,right,female,2,10,好人,S.bmp,Bad,No,n,n,1,850
10,24,right,female,2,11,坏人,S.bmp,Bad,Yes,m,n,0,818
10,24,right,female,2,12,坏人,T.bmp,Good,No,n,m,0,834
10,24,right,female,2,13,常人,T.bmp,Good,No,n,m,0,738
10,24,right,female,2,14,好人,C.bmp,Normal,No,n,n,1,978
10,24,right,female,2,15,坏人,T.bmp,Good,No,n,n,1,978
10,24,right,female,2,16,坏人,S.bmp,Bad,Yes,m,n,0,651
10,24,right,female,2,17,坏人,S.bmp,Bad,Yes,m,m,1,698
10,24,right,female,2,18,常人,C.bmp,Normal,Yes,m,m,1,634
10,24,right,female,2,19,好人,T.bmp,Good,Yes,m,m,1,554
10,24,right,female,2,20,常人,S.bmp,Bad,No,n,n,1,746
10,24,right,female,2,21,好人,T.bmp,Good,Yes,m,m,1,650
10,24,right,female,2,22,坏人,C.bmp,Normal,No,n,n,1,675
10,24,right,female,2,23,好人,S.bmp,Bad,No,n,n,1,587
10,24,right,female,2,24,常人,C.bmp,Normal,Yes,m,m,1,555
10,24,right,female,2,25,好人,T.bmp,Good,Yes,m,n,0,555
10,24,right,female,2,26,常人,C.bmp,Normal,Yes,m,m,1,771
10,24,right,female,2,27,坏人,T.bmp,Good,No,n,n,1,587
10,24,right,female,2,28,坏人,S.bmp,Bad,Yes,m,n,0,684
10,24,right,female,2,29,好人,T.bmp,Good,Yes,m,m,1,692
10,24,right,female,2,30,好人,C.bmp,Normal,No,n,n,1,708
10,24,right,female,2,31,常人,C.bmp,Normal,Yes,m,n,0,684
10,24,right,female,2,32,常人,S.bmp,Bad,No,n,n,1,868
10,24,right,female,2,33,常人,T.bmp,Good,No,n,n,1,524
10,24,right,female,2,34,坏人,S.bmp,Bad,Yes,m,m,1,741
10,24,right,female,2,35,坏人,C.bmp,Normal,No,n,n,1,661
10,24,right,female,2,36,好人,S.bmp,Bad,No,n,m,0,949
10,24,right,female,2,37,坏人,S.bmp,Bad,Yes,m,m,1,556
10,24,right,female,2,38,坏人,S.bmp,Bad,Yes,m,m,1,476
10,24,right,female,2,39,好人,S.bmp,Bad,No,n,m,0,556
10,24,right,female,2,40,常人,T.bmp,Good,No,n,m,0,405
10,24,right,female,2,41,坏人,T.bmp,Good,No,n,n,1,589
10,24,right,female,2,42,好人,T.bmp,Good,Yes,m,m,1,725
10,24,right,female,2,43,好人,T.bmp,Good,Yes,m,m,1,813
10,24,right,female,2,44,常人,C.bmp,Normal,Yes,m,m,1,685
10,24,right,female,2,45,坏人,C.bmp,Normal,No,n,n,1,565
10,24,right,female,2,46,好人,C.bmp,Normal,No,n,n,1,646
10,24,right,female,2,47,常人,S.bmp,Bad,No,n,n,1,710
10,24,right,female,2,48,常人,C.bmp,Normal,Yes,m,m,1,918
10,24,right,female,2,49,常人,T.bmp,Good,No,n,m,0,646
10,24,right,female,2,50,好人,T.bmp,Good,Yes,m,n,0,590
10,24,right,female,2,51,常人,C.bmp,Normal,Yes,m,m,1,742
10,24,right,female,2,52,常人,S.bmp,Bad,No,n,n,1,663
10,24,right,female,2,53,坏人,S.bmp,Bad,Yes,m,,0,0
10,24,right,female,2,54,坏人,C.bmp,Normal,No,n,n,1,807
10,24,right,female,2,55,坏人,S.bmp,Bad,Yes,m,n,0,591
10,24,right,female,2,56,好人,S.bmp,Bad,No,n,n,1,431
10,24,right,female,2,57,好人,C.bmp,Normal,No,n,n,1,702
10,24,right,female,2,58,常人,C.bmp,Normal,Yes,m,m,1,574
10,24,right,female,2,59,坏人,T.bmp,Good,No,n,n,1,471
10,24,right,female,2,60,好人,T.bmp,Good,Yes,m,n,0,551
10,24,right,female,3,1,坏人,T.bmp,Good,No,n,n,1,986
10,24,right,female,3,2,好人,T.bmp,Good,Yes,m,m,1,874
10,24,right,female,3,3,坏人,C.bmp,Normal,No,n,n,1,1034
10,24,right,female,3,4,常人,S.bmp,Bad,No,n,m,0,730
10,24,right,female,3,5,坏人,S.bmp,Bad,Yes,m,n,0,579
10,24,right,female,3,6,常人,T.bmp,Good,No,n,n,1,835
10,24,right,female,3,7,常人,C.bmp,Normal,Yes,m,m,1,659
10,24,right,female,3,8,坏人,S.bmp,Bad,Yes,m,n,0,675
10,24,right,female,3,9,好人,T.bmp,Good,Yes,m,n,0,603
10,24,right,female,3,10,好人,C.bmp,Normal,No,n,m,0,699
10,24,right,female,3,11,常人,C.bmp,Normal,Yes,m,m,1,620
10,24,right,female,3,12,好人,S.bmp,Bad,No,n,n,1,571
10,24,right,female,3,13,坏人,S.bmp,Bad,Yes,m,n,0,603
10,24,right,female,3,14,常人,C.bmp,Normal,Yes,m,m,1,827
10,24,right,female,3,15,好人,C.bmp,Normal,No,n,n,1,819
10,24,right,female,3,16,坏人,C.bmp,Normal,No,n,n,1,779
10,24,right,female,3,17,好人,S.bmp,Bad,No,n,n,1,620
10,24,right,female,3,18,常人,T.bmp,Good,No,n,m,0,572
10,24,right,female,3,19,坏人,S.bmp,Bad,Yes,m,m,1,804
10,24,right,female,3,20,坏人,T.bmp,Good,No,n,n,1,660
10,24,right,female,3,21,常人,C.bmp,Normal,Yes,m,m,1,700
10,24,right,female,3,22,常人,S.bmp,Bad,No,n,n,1,548
10,24,right,female,3,23,好人,T.bmp,Good,Yes,m,,0,0
10,24,right,female,3,24,好人,T.bmp,Good,Yes,m,m,1,565
10,24,right,female,3,25,坏人,S.bmp,Bad,Yes,m,n,0,541
10,24,right,female,3,26,坏人,S.bmp,Bad,Yes,m,m,1,573
10,24,right,female,3,27,坏人,C.bmp,Normal,No,n,n,1,597
10,24,right,female,3,28,坏人,T.bmp,Good,No,n,m,0,957
10,24,right,female,3,29,常人,C.bmp,Normal,Yes,m,m,1,542
10,24,right,female,3,30,常人,S.bmp,Bad,No,n,n,1,670
10,24,right,female,3,31,常人,T.bmp,Good,No,n,n,1,670
10,24,right,female,3,32,好人,T.bmp,Good,Yes,m,m,1,878
10,24,right,female,3,33,好人,S.bmp,Bad,No,n,n,1,702
10,24,right,female,3,34,好人,T.bmp,Good,Yes,m,m,1,693
10,24,right,female,3,35,常人,C.bmp,Normal,Yes,m,m,1,590
10,24,right,female,3,36,好人,C.bmp,Normal,No,n,n,1,694
10,24,right,female,3,37,坏人,T.bmp,Good,No,n,m,0,838
10,24,right,female,3,38,好人,C.bmp,Normal,No,n,m,0,534
10,24,right,female,3,39,坏人,S.bmp,Bad,Yes,m,,0,0
10,24,right,female,3,40,坏人,S.bmp,Bad,Yes,m,,0,0
10,24,right,female,3,41,坏人,C.bmp,Normal,No,n,n,1,637
10,24,right,female,3,42,好人,T.bmp,Good,Yes,m,m,1,605
10,24,right,female,3,43,常人,C.bmp,Normal,Yes,m,m,1,725
10,24,right,female,3,44,常人,C.bmp,Normal,Yes,m,m,1,429
10,24,right,female,3,45,好人,T.bmp,Good,Yes,m,m,1,717
10,24,right,female,3,46,常人,S.bmp,Bad,No,n,n,1,645
10,24,right,female,3,47,好人,S.bmp,Bad,No,n,n,1,654
10,24,right,female,3,48,常人,T.bmp,Good,No,n,n,1,894
10,24,right,female,3,49,坏人,S.bmp,Bad,Yes,m,n,0,598
10,24,right,female,3,50,常人,C.bmp,Normal,Yes,m,m,1,622
10,24,right,female,3,51,坏人,C.bmp,Normal,No,n,n,1,678
10,24,right,female,3,52,常人,S.bmp,Bad,No,n,n,1,662
10,24,right,female,3,53,常人,T.bmp,Good,No,n,n,1,886
10,24,right,female,3,54,坏人,T.bmp,Good,No,n,n,1,535
10,24,right,female,3,55,常人,C.bmp,Normal,Yes,m,m,1,608
10,24,right,female,3,56,坏人,S.bmp,Bad,Yes,m,n,0,568
10,24,right,female,3,57,好人,T.bmp,Good,Yes,m,m,1,576
10,24,right,female,3,58,好人,T.bmp,Good,Yes,m,m,1,1016
10,24,right,female,3,59,好人,C.bmp,Normal,No,n,m,0,537
10,24,right,female,3,60,好人,S.bmp,Bad,No,n,m,0,769
10,24,right,female,4,1,坏人,C.bmp,Normal,No,n,n,1,732
10,24,right,female,4,2,常人,C.bmp,Normal,Yes,m,m,1,612
10,24,right,female,4,3,坏人,S.bmp,Bad,Yes,m,m,1,924
10,24,right,female,4,4,常人,T.bmp,Good,No,n,n,1,924
10,24,right,female,4,5,好人,T.bmp,Good,Yes,m,m,1,765
10,24,right,female,4,6,好人,C.bmp,Normal,No,n,n,1,749
10,24,right,female,4,7,坏人,T.bmp,Good,No,n,n,1,933
10,24,right,female,4,8,常人,S.bmp,Bad,No,n,n,1,772
10,24,right,female,4,9,常人,C.bmp,Normal,Yes,m,m,1,428
10,24,right,female,4,10,坏人,S.bmp,Bad,Yes,m,n,0,612
10,24,right,female,4,11,好人,S.bmp,Bad,No,n,n,1,989
10,24,right,female,4,12,好人,T.bmp,Good,Yes,m,m,1,629
10,24,right,female,4,13,常人,T.bmp,Good,No,n,m,0,397
10,24,right,female,4,14,好人,T.bmp,Good,Yes,m,m,1,581
10,24,right,female,4,15,坏人,S.bmp,Bad,Yes,m,n,0,669
10,24,right,female,4,16,坏人,T.bmp,Good,No,n,n,1,821
10,24,right,female,4,17,常人,C.bmp,Normal,Yes,m,m,1,470
10,24,right,female,4,18,坏人,S.bmp,Bad,Yes,m,m,1,934
10,24,right,female,4,19,常人,C.bmp,Normal,Yes,m,n,0,670
10,24,right,female,4,20,坏人,C.bmp,Normal,No,n,n,1,678
10,24,right,female,4,21,好人,C.bmp,Normal,No,n,n,1,758
10,24,right,female,4,22,好人,S.bmp,Bad,No,n,n,1,654
10,24,right,female,4,23,好人,T.bmp,Good,Yes,m,n,0,503
10,24,right,female,4,24,常人,S.bmp,Bad,No,n,n,1,815
10,24,right,female,4,25,常人,T.bmp,Good,No,n,m,0,591
10,24,right,female,4,26,坏人,T.bmp,Good,No,n,n,1,943
10,24,right,female,4,27,常人,C.bmp,Normal,Yes,m,m,1,671
10,24,right,female,4,28,好人,T.bmp,Good,Yes,m,n,0,1047
10,24,right,female,4,29,坏人,S.bmp,Bad,Yes,m,n,0,623
10,24,right,female,4,30,好人,C.bmp,Normal,No,n,n,1,767
10,24,right,female,4,31,常人,C.bmp,Normal,Yes,m,m,1,535
10,24,right,female,4,32,坏人,C.bmp,Normal,No,n,n,1,631
10,24,right,female,4,33,坏人,S.bmp,Bad,Yes,m,n,0,815
10,24,right,female,4,34,常人,S.bmp,Bad,No,n,n,1,783
10,24,right,female,4,35,好人,S.bmp,Bad,No,n,n,1,895
10,24,right,female,4,36,好人,T.bmp,Good,Yes,m,m,1,552
10,24,right,female,4,37,常人,C.bmp,Normal,Yes,m,m,1,608
10,24,right,female,4,38,好人,T.bmp,Good,Yes,m,n,0,696
10,24,right,female,4,39,坏人,C.bmp,Normal,No,n,m,0,736
10,24,right,female,4,40,好人,C.bmp,Normal,No,n,,0,0
10,24,right,female,4,41,坏人,S.bmp,Bad,Yes,m,m,1,504
10,24,right,female,4,42,坏人,T.bmp,Good,No,n,n,1,833
10,24,right,female,4,43,常人,C.bmp,Normal,Yes,m,m,1,433
10,24,right,female,4,44,好人,S.bmp,Bad,No,n,,0,0
10,24,right,female,4,45,好人,T.bmp,Good,Yes,m,m,1,657
10,24,right,female,4,46,常人,S.bmp,Bad,No,n,n,1,841
10,24,right,female,4,47,常人,T.bmp,Good,No,n,n,1,809
10,24,right,female,4,48,坏人,S.bmp,Bad,Yes,m,m,1,1042
10,24,right,female,4,49,常人,T.bmp,Good,No,n,n,1,786
10,24,right,female,4,50,常人,S.bmp,Bad,No,n,n,1,594
10,24,right,female,4,51,坏人,C.bmp,Normal,No,n,n,1,817
10,24,right,female,4,52,好人,T.bmp,Good,Yes,m,m,1,705
10,24,right,female,4,53,好人,C.bmp,Normal,No,n,n,1,785
10,24,right,female,4,54,常人,C.bmp,Normal,Yes,m,m,1,602
10,24,right,female,4,55,好人,T.bmp,Good,Yes,m,n,0,586
10,24,right,female,4,56,坏人,S.bmp,Bad,Yes,m,m,1,914
10,24,right,female,4,57,坏人,S.bmp,Bad,Yes,m,n,0,594
10,24,right,female,4,58,好人,S.bmp,Bad,No,n,n,1,898
10,24,right,female,4,59,坏人,T.bmp,Good,No,n,n,1,1082
10,24,right,female,4,60,常人,C.bmp,Normal,Yes,m,m,1,563
10,24,right,female,5,1,好人,C.bmp,Normal,No,n,n,1,966
10,24,right,female,5,2,好人,T.bmp,Good,Yes,m,m,1,660
10,24,right,female,5,3,坏人,C.bmp,Normal,No,n,n,1,740
10,24,right,female,5,4,常人,C.bmp,Normal,Yes,m,m,1,604
10,24,right,female,5,5,坏人,T.bmp,Good,No,n,n,1,747
10,24,right,female,5,6,常人,T.bmp,Good,No,n,m,0,732
10,24,right,female,5,7,好人,S.bmp,Bad,No,n,n,1,700
10,24,right,female,5,8,常人,S.bmp,Bad,No,n,n,1,812
10,24,right,female,5,9,好人,T.bmp,Good,Yes,m,m,1,556
10,24,right,female,5,10,坏人,S.bmp,Bad,Yes,m,n,0,548
10,24,right,female,5,11,常人,C.bmp,Normal,Yes,m,m,1,660
10,24,right,female,5,12,坏人,S.bmp,Bad,Yes,m,n,0,565
10,24,right,female,5,13,坏人,S.bmp,Bad,Yes,m,m,1,765
10,24,right,female,5,14,坏人,C.bmp,Normal,No,n,n,1,653
10,24,right,female,5,15,常人,C.bmp,Normal,Yes,m,m,1,581
10,24,right,female,5,16,常人,T.bmp,Good,No,n,n,1,645
10,24,right,female,5,17,坏人,S.bmp,Bad,Yes,m,m,1,757
10,24,right,female,5,18,好人,S.bmp,Bad,No,n,n,1,574
10,24,right,female,5,19,常人,C.bmp,Normal,Yes,m,m,1,566
10,24,right,female,5,20,好人,T.bmp,Good,Yes,m,m,1,694
10,24,right,female,5,21,坏人,T.bmp,Good,No,n,n,1,670
10,24,right,female,5,22,好人,C.bmp,Normal,No,n,m,0,494
10,24,right,female,5,23,好人,T.bmp,Good,Yes,m,m,1,686
10,24,right,female,5,24,常人,S.bmp,Bad,No,n,n,1,839
10,24,right,female,5,25,好人,S.bmp,Bad,No,n,m,0,863
10,24,right,female,5,26,坏人,S.bmp,Bad,Yes,m,m,1,566
10,24,right,female,5,27,好人,T.bmp,Good,Yes,m,m,1,494
10,24,right,female,5,28,坏人,C.bmp,Normal,No,n,n,1,614
10,24,right,female,5,29,常人,T.bmp,Good,No,n,n,1,1006
10,24,right,female,5,30,常人,C.bmp,Normal,Yes,m,n,0,695
10,24,right,female,5,31,好人,T.bmp,Good,Yes,m,n,0,711
10,24,right,female,5,32,好人,C.bmp,Normal,No,n,n,1,895
10,24,right,female,5,33,坏人,S.bmp,Bad,Yes,m,n,0,815
10,24,right,female,5,34,常人,S.bmp,Bad,No,n,,0,0
10,24,right,female,5,35,坏人,T.bmp,Good,No,n,n,1,719
10,24,right,female,5,36,常人,C.bmp,Normal,Yes,m,m,1,544
10,24,right,female,5,37,常人,T.bmp,Good,No,n,n,1,728
10,24,right,female,5,38,坏人,T.bmp,Good,No,n,n,1,696
10,24,right,female,5,39,常人,S.bmp,Bad,No,n,m,0,600
10,24,right,female,5,40,坏人,C.bmp,Normal,No,n,m,0,696
10,24,right,female,5,41,好人,S.bmp,Bad,No,n,n,1,1032
10,24,right,female,5,42,常人,C.bmp,Normal,Yes,m,m,1,561
10,24,right,female,5,43,常人,C.bmp,Normal,Yes,m,m,1,425
10,24,right,female,5,44,好人,T.bmp,Good,Yes,m,m,1,897
10,24,right,female,5,45,好人,C.bmp,Normal,No,n,m,0,697
10,24,right,female,5,46,坏人,S.bmp,Bad,Yes,m,m,1,912
10,24,right,female,5,47,好人,T.bmp,Good,Yes,m,m,1,616
10,24,right,female,5,48,坏人,S.bmp,Bad,Yes,m,m,1,761
10,24,right,female,5,49,好人,C.bmp,Normal,No,n,n,1,705
10,24,right,female,5,50,好人,T.bmp,Good,Yes,m,m,1,609
10,24,right,female,5,51,坏人,S.bmp,Bad,Yes,m,m,1,769
10,24,right,female,5,52,好人,T.bmp,Good,Yes,m,m,1,777
10,24,right,female,5,53,常人,T.bmp,Good,No,n,n,1,617
10,24,right,female,5,54,坏人,S.bmp,Bad,Yes,m,m,1,658
10,24,right,female,5,55,好人,S.bmp,Bad,No,n,n,1,866
10,24,right,female,5,56,常人,S.bmp,Bad,No,n,m,0,882
10,24,right,female,5,57,坏人,C.bmp,Normal,No,n,n,1,746
10,24,right,female,5,58,常人,C.bmp,Normal,Yes,m,m,1,618
10,24,right,female,5,59,坏人,T.bmp,Good,No,n,n,1,890
10,24,right,female,5,60,常人,C.bmp,Normal,Yes,m,m,1,931
10,24,right,female,6,1,常人,T.bmp,Good,No,n,n,1,1078
10,24,right,female,6,2,常人,S.bmp,Bad,No,n,n,1,821
10,24,right,female,6,3,常人,C.bmp,Normal,Yes,m,m,1,589
10,24,right,female,6,4,坏人,C.bmp,Normal,No,n,n,1,685
10,24,right,female,6,5,好人,T.bmp,Good,Yes,m,m,1,629
10,24,right,female,6,6,好人,C.bmp,Normal,No,n,m,0,822
10,24,right,female,6,7,坏人,S.bmp,Bad,Yes,m,m,1,710
10,24,right,female,6,8,常人,C.bmp,Normal,Yes,m,m,1,790
10,24,right,female,6,9,坏人,S.bmp,Bad,Yes,m,,0,0
10,24,right,female,6,10,好人,T.bmp,Good,Yes,m,m,1,534
10,24,right,female,6,11,坏人,T.bmp,Good,No,n,n,1,678
10,24,right,female,6,12,好人,S.bmp,Bad,No,n,m,0,791
10,24,right,female,6,13,好人,C.bmp,Normal,No,n,n,1,855
10,24,right,female,6,14,坏人,T.bmp,Good,No,n,n,1,551
10,24,right,female,6,15,好人,T.bmp,Good,Yes,m,m,1,751
10,24,right,female,6,16,好人,S.bmp,Bad,No,n,,0,0
10,24,right,female,6,17,好人,T.bmp,Good,Yes,m,m,1,661
10,24,right,female,6,18,坏人,S.bmp,Bad,Yes,m,m,1,838
10,24,right,female,6,19,常人,C.bmp,Normal,Yes,m,m,1,526
10,24,right,female,6,20,常人,S.bmp,Bad,No,n,n,1,614
10,24,right,female,6,21,常人,C.bmp,Normal,Yes,m,m,1,1013
10,24,right,female,6,22,坏人,C.bmp,Normal,No,n,n,1,614
10,24,right,female,6,23,坏人,S.bmp,Bad,Yes,m,m,1,981
10,24,right,female,6,24,常人,T.bmp,Good,No,n,n,1,1070
10,24,right,female,6,25,好人,S.bmp,Bad,No,n,m,0,622
10,24,right,female,6,26,常人,C.bmp,Normal,Yes,m,m,1,478
10,24,right,female,6,27,坏人,T.bmp,Good,No,n,n,1,1022
10,24,right,female,6,28,好人,C.bmp,Normal,No,n,n,1,790
10,24,right,female,6,29,坏人,S.bmp,Bad,Yes,m,n,0,870
10,24,right,female,6,30,好人,T.bmp,Good,Yes,m,m,1,527
10,24,right,female,6,31,坏人,S.bmp,Bad,Yes,m,m,1,735
10,24,right,female,6,32,好人,T.bmp,Good,Yes,m,n,0,711
10,24,right,female,6,33,常人,T.bmp,Good,No,n,m,0,791
10,24,right,female,6,34,常人,C.bmp,Normal,Yes,m,m,1,479
10,24,right,female,6,35,坏人,C.bmp,Normal,No,n,n,1,567
10,24,right,female,6,36,常人,S.bmp,Bad,No,n,m,0,776
10,24,right,female,6,37,坏人,S.bmp,Bad,Yes,m,m,1,840
10,24,right,female,6,38,坏人,T.bmp,Good,No,n,n,1,784
10,24,right,female,6,39,好人,C.bmp,Normal,No,n,n,1,728
10,24,right,female,6,40,好人,T.bmp,Good,Yes,m,m,1,760
10,24,right,female,6,41,常人,C.bmp,Normal,Yes,m,m,1,720
10,24,right,female,6,42,常人,S.bmp,Bad,No,n,n,1,777
10,24,right,female,6,43,常人,T.bmp,Good,No,n,n,1,1064
10,24,right,female,6,44,坏人,S.bmp,Bad,Yes,m,m,1,872
10,24,right,female,6,45,好人,T.bmp,Good,Yes,m,m,1,952
10,24,right,female,6,46,坏人,C.bmp,Normal,No,n,n,1,696
10,24,right,female,6,47,常人,C.bmp,Normal,Yes,m,m,1,456
10,24,right,female,6,48,好人,S.bmp,Bad,No,n,n,1,1017
10,24,right,female,6,49,好人,T.bmp,Good,Yes,m,m,1,569
10,24,right,female,6,50,常人,C.bmp,Normal,Yes,m,m,1,465
10,24,right,female,6,51,坏人,T.bmp,Good,No,n,n,1,625
10,24,right,female,6,52,坏人,C.bmp,Normal,No,n,n,1,745
10,24,right,female,6,53,好人,T.bmp,Good,Yes,m,,0,0
10,24,right,female,6,54,好人,S.bmp,Bad,No,n,,0,0
10,24,right,female,6,55,常人,C.bmp,Normal,Yes,m,m,1,522
10,24,right,female,6,56,坏人,S.bmp,Bad,Yes,m,,0,0
10,24,right,female,6,57,坏人,S.bmp,Bad,Yes,m,n,0,858
10,24,right,female,6,58,常人,S.bmp,Bad,No,n,n,1,858
10,24,right,female,6,59,常人,T.bmp,Good,No,n,,0,0
10,24,right,female,6,60,好人,C.bmp,Normal,No,n,m,0,473
11,19,right,female,,1,坏人,S.bmp,Good,No,m,,0,0
11,19,right,female,,2,常人,T.bmp,Normal,Yes,n,,0,0
11,19,right,female,,3,好人,T.bmp,Normal,No,m,,0,0
11,19,right,female,,4,好人,S.bmp,Good,Yes,n,,0,0
11,19,right,female,,5,常人,C.bmp,Bad,No,m,,0,0
11,19,right,female,,6,好人,C.bmp,Bad,No,m,,0,0
11,19,right,female,,7,坏人,T.bmp,Normal,No,m,,0,0
11,19,right,female,,8,坏人,C.bmp,Bad,Yes,n,,0,0
11,19,right,female,,9,好人,S.bmp,Good,Yes,n,n,1,947
11,19,right,female,,10,坏人,C.bmp,Bad,Yes,n,n,1,780
11,19,right,female,,11,常人,S.bmp,Good,No,m,m,1,740
11,19,right,female,,12,常人,T.bmp,Normal,Yes,n,m,0,788
11,19,right,female,,13,坏人,S.bmp,Good,No,m,m,1,971
11,19,right,female,,14,好人,C.bmp,Bad,No,m,,0,0
11,19,right,female,,15,常人,C.bmp,Bad,No,m,m,1,836
11,19,right,female,,16,好人,T.bmp,Normal,No,m,,0,0
11,19,right,female,,17,坏人,C.bmp,Bad,Yes,n,m,0,740
11,19,right,female,,18,坏人,T.bmp,Normal,No,m,m,1,396
11,19,right,female,,19,常人,S.bmp,Good,No,m,m,1,340
11,19,right,female,,20,好人,S.bmp,Good,Yes,n,n,1,365
11,19,right,female,,21,常人,T.bmp,Normal,Yes,n,m,0,285
11,19,right,female,,22,常人,T.bmp,Normal,Yes,n,m,0,357
11,19,right,female,,23,好人,S.bmp,Good,Yes,n,n,1,485
11,19,right,female,,24,坏人,C.bmp,Bad,Yes,n,m,0,365
11,19,right,female,,25,坏人,C.bmp,Bad,Yes,n,m,0,635
11,19,right,female,,26,坏人,S.bmp,Good,No,m,m,1,1099
11,19,right,female,,27,常人,S.bmp,Good,No,m,,0,0
11,19,right,female,,28,常人,T.bmp,Normal,Yes,n,,0,0
11,19,right,female,,29,好人,C.bmp,Bad,No,m,m,1,612
11,19,right,female,,30,好人,T.bmp,Normal,No,m,m,1,699
11,19,right,female,,31,坏人,C.bmp,Bad,Yes,n,m,0,563
11,19,right,female,,32,常人,C.bmp,Bad,No,m,m,1,675
11,19,right,female,,33,常人,T.bmp,Normal,Yes,n,,0,0
11,19,right,female,,34,好人,S.bmp,Good,Yes,n,,0,0
11,19,right,female,,35,坏人,T.bmp,Normal,No,m,,0,0
11,19,right,female,,36,好人,S.bmp,Good,Yes,n,n,1,524
11,19,right,female,,37,坏人,C.bmp,Bad,Yes,n,m,0,687
11,19,right,female,,38,好人,C.bmp,Bad,No,m,m,1,823
11,19,right,female,,39,好人,S.bmp,Good,Yes,n,,0,0
11,19,right,female,,40,常人,C.bmp,Bad,No,m,,0,0
11,19,right,female,,41,坏人,C.bmp,Bad,Yes,n,n,1,199
11,19,right,female,,42,好人,T.bmp,Normal,No,m,n,0,472
11,19,right,female,,43,坏人,S.bmp,Good,No,m,m,1,848
11,19,right,female,,44,常人,S.bmp,Good,No,m,,0,0
11,19,right,female,,45,坏人,T.bmp,Normal,No,m,,0,0
11,19,right,female,,46,常人,T.bmp,Normal,Yes,n,n,1,319
11,19,right,female,,47,好人,S.bmp,Good,Yes,n,,0,0
11,19,right,female,,48,常人,T.bmp,Normal,Yes,n,n,1,680
11,19,right,female,1,1,坏人,C.bmp,Bad,Yes,n,n,1,500
11,19,right,female,1,2,好人,S.bmp,Good,Yes,n,n,1,797
11,19,right,female,1,3,好人,T.bmp,Normal,No,m,,0,0
11,19,right,female,1,4,常人,S.bmp,Good,No,m,,0,0
11,19,right,female,1,5,坏人,S.bmp,Good,No,m,,0,0
11,19,right,female,1,6,常人,C.bmp,Bad,No,m,,0,0
11,19,right,female,1,7,好人,C.bmp,Bad,No,m,n,0,373
11,19,right,female,1,8,常人,T.bmp,Normal,Yes,n,,0,0
11,19,right,female,1,9,坏人,C.bmp,Bad,Yes,n,m,0,766
11,19,right,female,1,10,常人,T.bmp,Normal,Yes,n,,0,0
11,19,right,female,1,11,好人,S.bmp,Good,Yes,n,,0,0
11,19,right,female,1,12,坏人,T.bmp,Normal,No,m,,0,0
11,19,right,female,1,13,好人,S.bmp,Good,Yes,n,n,1,902
11,19,right,female,1,14,坏人,T.bmp,Normal,No,m,m,1,638
11,19,right,female,1,15,常人,C.bmp,Bad,No,m,n,0,1070
11,19,right,female,1,16,常人,T.bmp,Normal,Yes,n,n,1,790
11,19,right,female,1,17,好人,C.bmp,Bad,No,m,m,1,774
11,19,right,female,1,18,坏人,C.bmp,Bad,Yes,n,m,0,982
11,19,right,female,1,19,常人,S.bmp,Good,No,m,,0,0
11,19,right,female,1,20,常人,T.bmp,Normal,Yes,n,,0,0
11,19,right,female,1,21,好人,T.bmp,Normal,No,m,n,0,631
11,19,right,female,1,22,好人,S.bmp,Good,Yes,n,m,0,1063
11,19,right,female,1,23,坏人,C.bmp,Bad,Yes,n,m,0,1023
11,19,right,female,1,24,坏人,S.bmp,Good,No,m,,0,0
11,19,right,female,1,25,好人,S.bmp,Good,Yes,n,,0,0
11,19,right,female,1,26,好人,T.bmp,Normal,No,m,n,0,461
11,19,right,female,1,27,常人,T.bmp,Normal,Yes,n,n,1,734
11,19,right,female,1,28,坏人,C.bmp,Bad,Yes,n,,0,0
11,19,right,female,1,29,好人,C.bmp,Bad,No,m,,0,0
11,19,right,female,1,30,坏人,S.bmp,Good,No,m,n,0,966
11,19,right,female,1,31,常人,T.bmp,Normal,Yes,n,n,1,78
11,19,right,female,1,32,常人,C.bmp,Bad,No,m,,0,0
11,19,right,female,1,33,常人,S.bmp,Good,No,m,n,0,590
11,19,right,female,1,34,坏人,C.bmp,Bad,Yes,n,,0,0
11,19,right,female,1,35,坏人,T.bmp,Normal,No,m,m,1,23
11,19,right,female,1,36,好人,S.bmp,Good,Yes,n,n,1,654
11,19,right,female,1,37,好人,C.bmp,Bad,No,m,n,0,822
11,19,right,female,1,38,坏人,C.bmp,Bad,Yes,n,m,0,622
11,19,right,female,1,39,常人,T.bmp,Normal,Yes,n,n,1,607
11,19,right,female,1,40,好人,T.bmp,Normal,No,m,m,1,759
11,19,right,female,1,41,常人,C.bmp,Bad,No,m,m,1,591
11,19,right,female,1,42,坏人,S.bmp,Good,No,m,n,0,375
11,19,right,female,1,43,常人,S.bmp,Good,No,m,n,0,967
11,19,right,female,1,44,坏人,T.bmp,Normal,No,m,,0,0
11,19,right,female,1,45,好人,S.bmp,Good,Yes,n,,0,0
11,19,right,female,1,46,好人,S.bmp,Good,Yes,n,m,0,862
11,19,right,female,1,47,常人,T.bmp,Normal,Yes,n,n,1,622
11,19,right,female,1,48,坏人,C.bmp,Bad,Yes,n,m,0,638
11,19,right,female,1,49,常人,T.bmp,Normal,Yes,n,n,1,798
11,19,right,female,1,50,坏人,C.bmp,Bad,Yes,n,n,1,878
11,19,right,female,1,51,坏人,C.bmp,Bad,Yes,n,n,1,799
11,19,right,female,1,52,坏人,T.bmp,Normal,No,m,n,0,687
11,19,right,female,1,53,好人,S.bmp,Good,Yes,n,n,1,839
11,19,right,female,1,54,常人,S.bmp,Good,No,m,m,1,1047
11,19,right,female,1,55,常人,C.bmp,Bad,No,m,n,0,783
11,19,right,female,1,56,好人,C.bmp,Bad,No,m,n,0,734
11,19,right,female,1,57,好人,S.bmp,Good,Yes,n,n,1,967
11,19,right,female,1,58,常人,T.bmp,Normal,Yes,n,n,1,832
11,19,right,female,1,59,好人,T.bmp,Normal,No,m,n,0,577
11,19,right,female,1,60,坏人,S.bmp,Good,No,m,n,0,969
11,19,right,female,2,1,好人,T.bmp,Normal,No,m,n,0,564
11,19,right,female,2,2,好人,C.bmp,Bad,No,m,n,0,788
11,19,right,female,2,3,坏人,S.bmp,Good,No,m,n,0,765
11,19,right,female,2,4,好人,S.bmp,Good,Yes,n,n,1,957
11,19,right,female,2,5,常人,C.bmp,Bad,No,m,m,1,1021
11,19,right,female,2,6,好人,S.bmp,Good,Yes,n,m,0,845
11,19,right,female,2,7,坏人,C.bmp,Bad,Yes,n,,0,0
11,19,right,female,2,8,坏人,C.bmp,Bad,Yes,n,m,0,829
11,19,right,female,2,9,常人,T.bmp,Normal,Yes,n,n,1,613
11,19,right,female,2,10,常人,S.bmp,Good,No,m,m,1,774
11,19,right,female,2,11,常人,T.bmp,Normal,Yes,n,n,1,877
11,19,right,female,2,12,坏人,T.bmp,Normal,No,m,m,1,853
11,19,right,female,2,13,坏人,C.bmp,Bad,Yes,n,m,0,701
11,19,right,female,2,14,坏人,S.bmp,Good,No,m,n,0,997
11,19,right,female,2,15,好人,C.bmp,Bad,No,m,m,1,733
11,19,right,female,2,16,常人,T.bmp,Normal,Yes,n,m,0,838
11,19,right,female,2,17,好人,S.bmp,Good,Yes,n,n,1,942
11,19,right,female,2,18,坏人,T.bmp,Normal,No,m,n,0,830
11,19,right,female,2,19,常人,T.bmp,Normal,Yes,n,n,1,838
11,19,right,female,2,20,坏人,C.bmp,Bad,Yes,n,n,1,862
11,19,right,female,2,21,好人,S.bmp,Good,Yes,n,n,1,638
11,19,right,female,2,22,好人,T.bmp,Normal,No,m,n,0,527
11,19,right,female,2,23,常人,S.bmp,Good,No,m,n,0,839
11,19,right,female,2,24,常人,C.bmp,Bad,No,m,n,0,847
11,19,right,female,2,25,好人,C.bmp,Bad,No,m,n,0,847
11,19,right,female,2,26,坏人,T.bmp,Normal,No,m,m,1,879
11,19,right,female,2,27,坏人,C.bmp,Bad,Yes,n,n,1,783
11,19,right,female,2,28,常人,C.bmp,Bad,No,m,n,0,880
11,19,right,female,2,29,好人,T.bmp,Normal,No,m,n,0,592
11,19,right,female,2,30,坏人,C.bmp,Bad,Yes,n,n,1,752
11,19,right,female,2,31,常人,S.bmp,Good,No,m,m,1,855
11,19,right,female,2,32,坏人,S.bmp,Good,No,m,n,0,735
11,19,right,female,2,33,常人,T.bmp,Normal,Yes,n,n,1,615
11,19,right,female,2,34,好人,S.bmp,Good,Yes,n,m,0,600
11,19,right,female,2,35,常人,T.bmp,Normal,Yes,n,n,1,672
11,19,right,female,2,36,好人,S.bmp,Good,Yes,n,n,1,712
11,19,right,female,2,37,好人,S.bmp,Good,Yes,n,n,1,896
11,19,right,female,2,38,常人,T.bmp,Normal,Yes,n,m,0,824
11,19,right,female,2,39,常人,T.bmp,Normal,Yes,n,n,1,536
11,19,right,female,2,40,坏人,S.bmp,Good,No,m,m,1,953
11,19,right,female,2,41,坏人,T.bmp,Normal,No,m,n,0,737
11,19,right,female,2,42,坏人,C.bmp,Bad,Yes,n,m,0,657
11,19,right,female,2,43,好人,C.bmp,Bad,No,m,n,0,425
11,19,right,female,2,44,坏人,C.bmp,Bad,Yes,n,m,0,409
11,19,right,female,2,45,常人,S.bmp,Good,No,m,m,1,873
11,19,right,female,2,46,好人,S.bmp,Good,Yes,n,n,1,714
11,19,right,female,2,47,好人,T.bmp,Normal,No,m,n,0,666
11,19,right,female,2,48,常人,C.bmp,Bad,No,m,,0,0
11,19,right,female,2,49,好人,T.bmp,Normal,No,m,n,0,754
11,19,right,female,2,50,常人,T.bmp,Normal,Yes,n,n,1,490
11,19,right,female,2,51,坏人,C.bmp,Bad,Yes,n,m,0,714
11,19,right,female,2,52,坏人,C.bmp,Bad,Yes,n,n,1,827
11,19,right,female,2,53,常人,S.bmp,Good,No,m,n,0,882
11,19,right,female,2,54,好人,S.bmp,Good,Yes,n,n,1,930
11,19,right,female,2,55,坏人,S.bmp,Good,No,m,m,1,730
11,19,right,female,2,56,好人,S.bmp,Good,Yes,n,,0,0
11,19,right,female,2,57,常人,C.bmp,Bad,No,m,n,0,730
11,19,right,female,2,58,常人,T.bmp,Normal,Yes,n,n,1,515
11,19,right,female,2,59,好人,C.bmp,Bad,No,m,m,1,571
11,19,right,female,2,60,坏人,T.bmp,Normal,No,m,n,0,475
11,19,right,female,3,1,坏人,S.bmp,Good,No,m,n,0,758
11,19,right,female,3,2,常人,S.bmp,Good,No,m,n,0,822
11,19,right,female,3,3,好人,C.bmp,Bad,No,m,n,0,910
11,19,right,female,3,4,坏人,C.bmp,Bad,Yes,n,n,1,647
11,19,right,female,3,5,好人,S.bmp,Good,Yes,n,n,1,959
11,19,right,female,3,6,常人,C.bmp,Bad,No,m,n,0,479
11,19,right,female,3,7,坏人,C.bmp,Bad,Yes,n,n,1,726
11,19,right,female,3,8,好人,S.bmp,Good,Yes,n,n,1,670
11,19,right,female,3,9,坏人,T.bmp,Normal,No,m,m,1,902
11,19,right,female,3,10,常人,T.bmp,Normal,Yes,n,n,1,583
11,19,right,female,3,11,好人,T.bmp,Normal,No,m,m,1,687
11,19,right,female,3,12,常人,T.bmp,Normal,Yes,n,n,1,591
11,19,right,female,3,13,常人,T.bmp,Normal,Yes,n,n,1,567
11,19,right,female,3,14,常人,S.bmp,Good,No,m,m,1,927
11,19,right,female,3,15,好人,S.bmp,Good,Yes,n,n,1,1015
11,19,right,female,3,16,坏人,C.bmp,Bad,Yes,n,n,1,607
11,19,right,female,3,17,坏人,T.bmp,Normal,No,m,m,1,768
11,19,right,female,3,18,坏人,C.bmp,Bad,Yes,n,n,1,768
11,19,right,female,3,19,好人,T.bmp,Normal,No,m,n,0,680
11,19,right,female,3,20,坏人,S.bmp,Good,No,m,n,0,742
11,19,right,female,3,21,常人,C.bmp,Bad,No,m,m,1,1086
11,19,right,female,3,22,好人,S.bmp,Good,Yes,n,m,0,606
11,19,right,female,3,23,常人,T.bmp,Normal,Yes,n,n,1,583
11,19,right,female,3,24,好人,C.bmp,Bad,No,m,n,0,863
11,19,right,female,3,25,好人,C.bmp,Bad,No,m,n,0,647
11,19,right,female,3,26,坏人,T.bmp,Normal,No,m,n,0,647
11,19,right,female,3,27,好人,T.bmp,Normal,No,m,m,1,879
11,19,right,female,3,28,常人,C.bmp,Bad,No,m,m,1,1046
11,19,right,female,3,29,坏人,C.bmp,Bad,Yes,n,n,1,863
11,19,right,female,3,30,常人,T.bmp,Normal,Yes,n,n,1,853
11,19,right,female,3,31,好人,S.bmp,Good,Yes,n,m,0,765
11,19,right,female,3,32,好人,S.bmp,Good,Yes,n,n,1,613
11,19,right,female,3,33,坏人,S.bmp,Good,No,m,n,0,845
11,19,right,female,3,34,常人,S.bmp,Good,No,m,m,1,1021
11,19,right,female,3,35,坏人,C.bmp,Bad,Yes,n,n,1,934
11,19,right,female,3,36,常人,T.bmp,Normal,Yes,n,n,1,702
11,19,right,female,3,37,好人,S.bmp,Good,Yes,n,n,1,678
11,19,right,female,3,38,常人,C.bmp,Bad,No,m,m,1,838
11,19,right,female,3,39,坏人,C.bmp,Bad,Yes,n,m,0,598
11,19,right,female,3,40,坏人,C.bmp,Bad,Yes,n,n,1,694
11,19,right,female,3,41,常人,T.bmp,Normal,Yes,n,m,0,799
11,19,right,female,3,42,常人,S.bmp,Good,No,m,m,1,1023
11,19,right,female,3,43,好人,C.bmp,Bad,No,m,n,0,711
11,19,right,female,3,44,坏人,T.bmp,Normal,No,m,n,0,639
11,19,right,female,3,45,好人,T.bmp,Normal,No,m,n,0,599
11,19,right,female,3,46,坏人,S.bmp,Good,No,m,n,0,735
11,19,right,female,3,47,常人,T.bmp,Normal,Yes,n,n,1,936
11,19,right,female,3,48,好人,S.bmp,Good,Yes,n,n,1,663
11,19,right,female,3,49,常人,T.bmp,Normal,Yes,n,,0,0
11,19,right,female,3,50,坏人,S.bmp,Good,No,m,,0,0
11,19,right,female,3,51,常人,C.bmp,Bad,No,m,,0,0
11,19,right,female,3,52,好人,T.bmp,Normal,No,m,n,0,815
11,19,right,female,3,53,坏人,C.bmp,Bad,Yes,n,n,1,512
11,19,right,female,3,54,好人,C.bmp,Bad,No,m,n,0,664
11,19,right,female,3,55,好人,S.bmp,Good,Yes,n,n,1,712
11,19,right,female,3,56,好人,S.bmp,Good,Yes,n,n,1,840
11,19,right,female,3,57,常人,T.bmp,Normal,Yes,n,n,1,744
11,19,right,female,3,58,常人,S.bmp,Good,No,m,n,0,600
11,19,right,female,3,59,坏人,T.bmp,Normal,No,m,n,0,625
11,19,right,female,3,60,坏人,C.bmp,Bad,Yes,n,n,1,793
11,19,right,female,4,1,坏人,S.bmp,Good,No,m,n,0,516
11,19,right,female,4,2,坏人,C.bmp,Bad,Yes,n,n,1,868
11,19,right,female,4,3,常人,S.bmp,Good,No,m,m,1,811
11,19,right,female,4,4,常人,C.bmp,Bad,No,m,m,1,1051
11,19,right,female,4,5,坏人,C.bmp,Bad,Yes,n,m,0,932
11,19,right,female,4,6,常人,T.bmp,Normal,Yes,n,n,1,692
11,19,right,female,4,7,常人,T.bmp,Normal,Yes,n,n,1,660
11,19,right,female,4,8,好人,S.bmp,Good,Yes,n,n,1,708
11,19,right,female,4,9,好人,C.bmp,Bad,No,m,m,1,780
11,19,right,female,4,10,好人,T.bmp,Normal,No,m,n,0,964
11,19,right,female,4,11,好人,S.bmp,Good,Yes,n,n,1,1013
11,19,right,female,4,12,坏人,T.bmp,Normal,No,m,m,1,805
11,19,right,female,4,13,常人,T.bmp,Normal,Yes,n,n,1,445
11,19,right,female,4,14,常人,C.bmp,Bad,No,m,n,0,509
11,19,right,female,4,15,好人,S.bmp,Good,Yes,n,n,1,693
11,19,right,female,4,16,坏人,S.bmp,Good,No,m,,0,0
11,19,right,female,4,17,常人,T.bmp,Normal,Yes,n,n,1,629
11,19,right,female,4,18,常人,S.bmp,Good,No,m,n,0,574
11,19,right,female,4,19,好人,T.bmp,Normal,No,m,n,0,558
11,19,right,female,4,20,坏人,C.bmp,Bad,Yes,n,n,1,822
11,19,right,female,4,21,坏人,C.bmp,Bad,Yes,n,m,0,758
11,19,right,female,4,22,坏人,T.bmp,Normal,No,m,n,0,550
11,19,right,female,4,23,好人,C.bmp,Bad,No,m,m,1,943
11,19,right,female,4,24,好人,S.bmp,Good,Yes,n,m,0,966
11,19,right,female,4,25,常人,C.bmp,Bad,No,m,n,0,574
11,19,right,female,4,26,好人,S.bmp,Good,Yes,n,n,1,1030
11,19,right,female,4,27,坏人,C.bmp,Bad,Yes,n,n,1,694
11,19,right,female,4,28,好人,C.bmp,Bad,No,m,n,0,598
11,19,right,female,4,29,坏人,C.bmp,Bad,Yes,n,n,1,679
11,19,right,female,4,30,常人,S.bmp,Good,No,m,m,1,671
11,19,right,female,4,31,好人,T.bmp,Normal,No,m,m,1,935
11,19,right,female,4,32,好人,S.bmp,Good,Yes,n,m,0,983
11,19,right,female,4,33,坏人,S.bmp,Good,No,m,n,0,687
11,19,right,female,4,34,常人,T.bmp,Normal,Yes,n,n,1,591
11,19,right,female,4,35,常人,T.bmp,Normal,Yes,n,n,1,600
11,19,right,female,4,36,坏人,T.bmp,Normal,No,m,m,1,944
11,19,right,female,4,37,坏人,S.bmp,Good,No,m,n,0,872
11,19,right,female,4,38,常人,S.bmp,Good,No,m,n,0,824
11,19,right,female,4,39,好人,S.bmp,Good,Yes,n,,0,0
11,19,right,female,4,40,常人,T.bmp,Normal,Yes,n,n,1,590
11,19,right,female,4,41,坏人,C.bmp,Bad,Yes,n,m,0,655
11,19,right,female,4,42,好人,S.bmp,Good,Yes,n,n,1,615
11,19,right,female,4,43,常人,T.bmp,Normal,Yes,n,m,0,1015
11,19,right,female,4,44,好人,T.bmp,Normal,No,m,,0,0
11,19,right,female,4,45,好人,C.bmp,Bad,No,m,,0,0
11,19,right,female,4,46,坏人,C.bmp,Bad,Yes,n,,0,0
11,19,right,female,4,47,常人,C.bmp,Bad,No,m,n,0,591
11,19,right,female,4,48,坏人,T.bmp,Normal,No,m,,0,0
11,19,right,female,4,49,好人,S.bmp,Good,Yes,n,m,0,607
11,19,right,female,4,50,常人,S.bmp,Good,No,m,n,0,743
11,19,right,female,4,51,坏人,C.bmp,Bad,Yes,n,m,0,511
11,19,right,female,4,52,坏人,C.bmp,Bad,Yes,n,,0,0
11,19,right,female,4,53,坏人,T.bmp,Normal,No,m,,0,0
11,19,right,female,4,54,坏人,S.bmp,Good,No,m,,0,0
11,19,right,female,4,55,常人,C.bmp,Bad,No,m,,0,0
11,19,right,female,4,56,好人,S.bmp,Good,Yes,n,,0,0
11,19,right,female,4,57,常人,T.bmp,Normal,Yes,n,n,1,822
11,19,right,female,4,58,好人,C.bmp,Bad,No,m,,0,0
11,19,right,female,4,59,好人,T.bmp,Normal,No,m,n,0,623
11,19,right,female,4,60,常人,T.bmp,Normal,Yes,n,,0,0
11,19,right,female,5,1,坏人,C.bmp,Bad,Yes,n,,0,0
11,19,right,female,5,2,坏人,S.bmp,Good,No,m,m,1,1097
11,19,right,female,5,3,好人,S.bmp,Good,Yes,n,,0,0
11,19,right,female,5,4,好人,T.bmp,Normal,No,m,,0,0
11,19,right,female,5,5,好人,S.bmp,Good,Yes,n,m,0,842
11,19,right,female,5,6,常人,T.bmp,Normal,Yes,n,n,1,498
11,19,right,female,5,7,坏人,C.bmp,Bad,Yes,n,n,1,666
11,19,right,female,5,8,常人,C.bmp,Bad,No,m,m,1,786
11,19,right,female,5,9,坏人,T.bmp,Normal,No,m,m,1,1018
11,19,right,female,5,10,常人,S.bmp,Good,No,m,,0,0
11,19,right,female,5,11,常人,T.bmp,Normal,Yes,n,,0,0
11,19,right,female,5,12,好人,C.bmp,Bad,No,m,m,1,211
11,19,right,female,5,13,好人,S.bmp,Good,Yes,n,n,1,811
11,19,right,female,5,14,坏人,S.bmp,Good,No,m,m,1,611
11,19,right,female,5,15,常人,C.bmp,Bad,No,m,n,0,555
11,19,right,female,5,16,常人,S.bmp,Good,No,m,n,0,587
11,19,right,female,5,17,坏人,C.bmp,Bad,Yes,n,m,0,660
11,19,right,female,5,18,常人,T.bmp,Normal,Yes,n,n,1,556
11,19,right,female,5,19,好人,T.bmp,Normal,No,m,n,0,668
11,19,right,female,5,20,好人,C.bmp,Bad,No,m,m,1,652
11,19,right,female,5,21,常人,T.bmp,Normal,Yes,n,m,0,891
11,19,right,female,5,22,坏人,C.bmp,Bad,Yes,n,n,1,699
11,19,right,female,5,23,坏人,T.bmp,Normal,No,m,m,1,684
11,19,right,female,5,24,好人,S.bmp,Good,Yes,n,m,0,732
11,19,right,female,5,25,常人,T.bmp,Normal,Yes,n,n,1,636
11,19,right,female,5,26,好人,T.bmp,Normal,No,m,n,0,460
11,19,right,female,5,27,坏人,C.bmp,Bad,Yes,n,n,1,476
11,19,right,female,5,28,常人,T.bmp,Normal,Yes,n,n,1,524
11,19,right,female,5,29,坏人,S.bmp,Good,No,m,m,1,749
11,19,right,female,5,30,常人,C.bmp,Bad,No,m,m,1,1021
11,19,right,female,5,31,好人,S.bmp,Good,Yes,n,n,1,677
11,19,right,female,5,32,坏人,T.bmp,Normal,No,m,n,0,461
11,19,right,female,5,33,常人,S.bmp,Good,No,m,m,1,645
11,19,right,female,5,34,坏人,C.bmp,Bad,Yes,n,m,0,509
11,19,right,female,5,35,好人,S.bmp,Good,Yes,n,n,1,646
11,19,right,female,5,36,好人,C.bmp,Bad,No,m,m,1,430
11,19,right,female,5,37,好人,T.bmp,Normal,No,m,n,0,526
11,19,right,female,5,38,好人,S.bmp,Good,Yes,n,m,0,518
11,19,right,female,5,39,好人,S.bmp,Good,Yes,n,n,1,494
11,19,right,female,5,40,好人,C.bmp,Bad,No,m,m,1,598
11,19,right,female,5,41,常人,T.bmp,Normal,Yes,n,n,1,526
11,19,right,female,5,42,坏人,C.bmp,Bad,Yes,n,m,0,559
11,19,right,female,5,43,常人,S.bmp,Good,No,m,n,0,608
11,19,right,female,5,44,常人,C.bmp,Bad,No,m,m,1,672
11,19,right,female,5,45,坏人,S.bmp,Good,No,m,m,1,512
11,19,right,female,5,46,坏人,T.bmp,Normal,No,m,m,1,680
11,19,right,female,5,47,常人,T.bmp,Normal,Yes,n,m,0,369
11,19,right,female,5,48,坏人,C.bmp,Bad,Yes,n,m,0,345
11,19,right,female,5,49,常人,C.bmp,Bad,No,m,m,1,345
11,19,right,female,5,50,好人,S.bmp,Good,Yes,n,m,0,673
11,19,right,female,5,51,坏人,S.bmp,Good,No,m,m,1,561
11,19,right,female,5,52,常人,T.bmp,Normal,Yes,n,n,1,641
11,19,right,female,5,53,坏人,T.bmp,Normal,No,m,m,1,545
11,19,right,female,5,54,常人,T.bmp,Normal,Yes,n,n,1,682
11,19,right,female,5,55,坏人,C.bmp,Bad,Yes,n,m,0,498
11,19,right,female,5,56,坏人,C.bmp,Bad,Yes,n,,0,0
11,19,right,female,5,57,好人,C.bmp,Bad,No,m,m,1,138
11,19,right,female,5,58,好人,T.bmp,Normal,No,m,m,1,290
11,19,right,female,5,59,好人,S.bmp,Good,Yes,n,m,0,746
11,19,right,female,5,60,常人,S.bmp,Good,No,m,m,1,283
11,19,right,female,6,1,好人,C.bmp,Bad,No,m,n,0,629
11,19,right,female,6,2,常人,C.bmp,Bad,No,m,m,1,957
11,19,right,female,6,3,坏人,C.bmp,Bad,Yes,n,m,0,701
11,19,right,female,6,4,常人,S.bmp,Good,No,m,m,1,725
11,19,right,female,6,5,好人,S.bmp,Good,Yes,n,m,0,533
11,19,right,female,6,6,坏人,C.bmp,Bad,Yes,n,m,0,270
11,19,right,female,6,7,坏人,S.bmp,Good,No,m,m,1,486
11,19,right,female,6,8,好人,T.bmp,Normal,No,m,n,0,470
11,19,right,female,6,9,坏人,T.bmp,Normal,No,m,,0,0
11,19,right,female,6,10,常人,T.bmp,Normal,Yes,n,n,1,630
11,19,right,female,6,11,常人,T.bmp,Normal,Yes,n,m,0,695
11,19,right,female,6,12,好人,S.bmp,Good,Yes,n,m,0,615
11,19,right,female,6,13,常人,T.bmp,Normal,Yes,n,m,0,799
11,19,right,female,6,14,坏人,C.bmp,Bad,Yes,n,m,0,599
11,19,right,female,6,15,坏人,S.bmp,Good,No,m,n,0,567
11,19,right,female,6,16,好人,S.bmp,Good,Yes,n,n,1,703
11,19,right,female,6,17,常人,C.bmp,Bad,No,m,n,0,798
11,19,right,female,6,18,好人,C.bmp,Bad,No,m,n,0,576
11,19,right,female,6,19,好人,S.bmp,Good,Yes,n,n,1,673
11,19,right,female,6,20,常人,T.bmp,Normal,Yes,n,n,1,769
11,19,right,female,6,21,坏人,C.bmp,Bad,Yes,n,n,1,881
11,19,right,female,6,22,坏人,T.bmp,Normal,No,m,m,1,809
11,19,right,female,6,23,常人,S.bmp,Good,No,m,n,0,569
11,19,right,female,6,24,好人,T.bmp,Normal,No,m,m,1,402
11,19,right,female,6,25,好人,S.bmp,Good,Yes,n,m,0,394
11,19,right,female,6,26,坏人,T.bmp,Normal,No,m,m,1,282
11,19,right,female,6,27,坏人,C.bmp,Bad,Yes,n,n,1,378
11,19,right,female,6,28,常人,C.bmp,Bad,No,m,n,0,754
11,19,right,female,6,29,常人,T.bmp,Normal,Yes,n,n,1,562
11,19,right,female,6,30,常人,T.bmp,Normal,Yes,n,,0,0
11,19,right,female,6,31,坏人,S.bmp,Good,No,m,m,1,557
11,19,right,female,6,32,好人,S.bmp,Good,Yes,n,,0,0
11,19,right,female,6,33,好人,C.bmp,Bad,No,m,,0,0
11,19,right,female,6,34,常人,S.bmp,Good,No,m,,0,0
11,19,right,female,6,35,好人,T.bmp,Normal,No,m,m,1,317
11,19,right,female,6,36,坏人,C.bmp,Bad,Yes,n,m,0,334
11,19,right,female,6,37,坏人,C.bmp,Bad,Yes,n,m,0,486
11,19,right,female,6,38,坏人,C.bmp,Bad,Yes,n,,0,0
11,19,right,female,6,39,常人,C.bmp,Bad,No,m,m,1,477
11,19,right,female,6,40,坏人,S.bmp,Good,No,m,m,1,669
11,19,right,female,6,41,常人,T.bmp,Normal,Yes,n,n,1,685
11,19,right,female,6,42,好人,S.bmp,Good,Yes,n,n,1,942
11,19,right,female,6,43,好人,S.bmp,Good,Yes,n,,0,0
11,19,right,female,6,44,坏人,T.bmp,Normal,No,m,n,0,334
11,19,right,female,6,45,好人,T.bmp,Normal,No,m,m,1,414
11,19,right,female,6,46,常人,T.bmp,Normal,Yes,n,n,1,446
11,19,right,female,6,47,好人,C.bmp,Bad,No,m,m,1,534
11,19,right,female,6,48,常人,S.bmp,Good,No,m,m,1,815
11,19,right,female,6,49,常人,S.bmp,Good,No,m,,0,0
11,19,right,female,6,50,好人,S.bmp,Good,Yes,n,n,1,55
11,19,right,female,6,51,坏人,T.bmp,Normal,No,m,n,0,399
11,19,right,female,6,52,常人,T.bmp,Normal,Yes,n,m,0,471
11,19,right,female,6,53,好人,S.bmp,Good,Yes,n,m,0,479
11,19,right,female,6,54,坏人,C.bmp,Bad,Yes,n,n,1,832
11,19,right,female,6,55,常人,C.bmp,Bad,No,m,n,0,968
11,19,right,female,6,56,好人,C.bmp,Bad,No,m,,0,0
11,19,right,female,6,57,坏人,C.bmp,Bad,Yes,n,,0,0
11,19,right,female,6,58,好人,T.bmp,Normal,No,m,n,0,405
11,19,right,female,6,59,常人,T.bmp,Normal,Yes,n,m,0,341
11,19,right,female,6,60,坏人,S.bmp,Good,No,m,n,0,470
12,19,right,female,,1,常人,S.bmp,Normal,Yes,m,,0,0
12,19,right,female,,2,坏人,T.bmp,Bad,Yes,m,m,1,753
12,19,right,female,,3,好人,S.bmp,Normal,No,n,n,1,825
12,19,right,female,,4,好人,T.bmp,Bad,No,n,m,0,737
12,19,right,female,,5,好人,C.bmp,Good,Yes,m,n,0,937
12,19,right,female,,6,坏人,T.bmp,Bad,Yes,m,,0,0
12,19,right,female,,7,好人,C.bmp,Good,Yes,m,m,1,994
12,19,right,female,,8,坏人,C.bmp,Good,No,n,,0,0
12,19,right,female,,9,坏人,S.bmp,Normal,No,n,n,1,258
12,19,right,female,,10,常人,T.bmp,Bad,No,n,,0,0
12,19,right,female,,11,常人,S.bmp,Normal,Yes,m,n,0,266
12,19,right,female,,12,常人,C.bmp,Good,No,n,,0,0
12,19,right,female,,13,常人,C.bmp,Good,No,n,n,1,817
12,19,right,female,,14,坏人,T.bmp,Bad,Yes,m,m,1,1001
12,19,right,female,,15,好人,C.bmp,Good,Yes,m,,0,0
12,19,right,female,,16,好人,S.bmp,Normal,No,n,n,1,793
12,19,right,female,,17,好人,T.bmp,Bad,No,n,n,1,1057
12,19,right,female,,18,坏人,T.bmp,Bad,Yes,m,m,1,842
12,19,right,female,,19,好人,C.bmp,Good,Yes,m,,0,0
12,19,right,female,,20,常人,S.bmp,Normal,Yes,m,,0,0
12,19,right,female,,21,坏人,C.bmp,Good,No,n,,0,0
12,19,right,female,,22,坏人,S.bmp,Normal,No,n,m,0,650
12,19,right,female,,23,常人,S.bmp,Normal,Yes,m,n,0,570
12,19,right,female,,24,常人,T.bmp,Bad,No,n,,0,0
12,19,right,female,1,1,好人,T.bmp,Bad,No,n,n,1,914
12,19,right,female,1,2,坏人,T.bmp,Bad,Yes,m,n,0,498
12,19,right,female,1,3,常人,S.bmp,Normal,Yes,m,,0,0
12,19,right,female,1,4,好人,C.bmp,Good,Yes,m,,0,0
12,19,right,female,1,5,坏人,T.bmp,Bad,Yes,m,,0,0
12,19,right,female,1,6,坏人,S.bmp,Normal,No,n,n,1,795
12,19,right,female,1,7,坏人,C.bmp,Good,No,n,,0,0
12,19,right,female,1,8,好人,C.bmp,Good,Yes,m,m,1,979
12,19,right,female,1,9,常人,T.bmp,Bad,No,n,n,1,643
12,19,right,female,1,10,好人,S.bmp,Normal,No,n,m,0,810
12,19,right,female,1,11,常人,C.bmp,Good,No,n,,0,0
12,19,right,female,1,12,常人,S.bmp,Normal,Yes,m,m,1,923
12,19,right,female,1,13,常人,S.bmp,Normal,Yes,m,m,1,651
12,19,right,female,1,14,好人,S.bmp,Normal,No,n,m,0,483
12,19,right,female,1,15,常人,C.bmp,Good,No,n,,0,0
12,19,right,female,1,16,坏人,C.bmp,Good,No,n,n,1,699
12,19,right,female,1,17,好人,C.bmp,Good,Yes,m,m,1,756
12,19,right,female,1,18,好人,T.bmp,Bad,No,n,n,1,628
12,19,right,female,1,19,常人,S.bmp,Normal,Yes,m,m,1,588
12,19,right,female,1,20,坏人,T.bmp,Bad,Yes,m,n,0,580
12,19,right,female,1,21,坏人,T.bmp,Bad,Yes,m,,0,0
12,19,right,female,1,22,好人,C.bmp,Good,Yes,m,m,1,780
12,19,right,female,1,23,坏人,S.bmp,Normal,No,n,,0,0
12,19,right,female,1,24,常人,T.bmp,Bad,No,n,n,1,821
12,19,right,female,1,25,坏人,T.bmp,Bad,Yes,m,m,1,597
12,19,right,female,1,26,坏人,S.bmp,Normal,No,n,n,1,685
12,19,right,female,1,27,好人,S.bmp,Normal,No,n,n,1,1037
12,19,right,female,1,28,常人,S.bmp,Normal,Yes,m,m,1,989
12,19,right,female,1,29,常人,S.bmp,Normal,Yes,m,m,1,501
12,19,right,female,1,30,坏人,C.bmp,Good,No,n,n,1,630
12,19,right,female,1,31,坏人,T.bmp,Bad,Yes,m,n,0,669
12,19,right,female,1,32,常人,T.bmp,Bad,No,n,,0,0
12,19,right,female,1,33,好人,T.bmp,Bad,No,n,n,1,773
12,19,right,female,1,34,好人,C.bmp,Good,Yes,m,m,1,701
12,19,right,female,1,35,好人,C.bmp,Good,Yes,m,m,1,565
12,19,right,female,1,36,常人,C.bmp,Good,No,n,m,0,518
12,19,right,female,1,37,坏人,T.bmp,Bad,Yes,m,,0,0
12,19,right,female,1,38,常人,C.bmp,Good,No,n,m,0,838
12,19,right,female,1,39,常人,T.bmp,Bad,No,n,n,1,694
12,19,right,female,1,40,好人,T.bmp,Bad,No,n,m,0,814
12,19,right,female,1,41,好人,S.bmp,Normal,No,n,n,1,926
12,19,right,female,1,42,常人,S.bmp,Normal,Yes,m,n,0,623
12,19,right,female,1,43,常人,S.bmp,Normal,Yes,m,,0,0
12,19,right,female,1,44,好人,C.bmp,Good,Yes,m,m,1,1031
12,19,right,female,1,45,坏人,S.bmp,Normal,No,n,n,1,815
12,19,right,female,1,46,好人,C.bmp,Good,Yes,m,m,1,1031
12,19,right,female,1,47,坏人,T.bmp,Bad,Yes,m,n,0,671
12,19,right,female,1,48,坏人,C.bmp,Good,No,n,m,0,864
12,19,right,female,1,49,坏人,T.bmp,Bad,Yes,m,,0,0
12,19,right,female,1,50,好人,S.bmp,Normal,No,n,m,0,911
12,19,right,female,1,51,常人,T.bmp,Bad,No,n,,0,0
12,19,right,female,1,52,坏人,T.bmp,Bad,Yes,m,,0,0
12,19,right,female,1,53,常人,S.bmp,Normal,Yes,m,m,1,597
12,19,right,female,1,54,好人,C.bmp,Good,Yes,m,n,0,758
12,19,right,female,1,55,好人,C.bmp,Good,Yes,m,,0,0
12,19,right,female,1,56,坏人,S.bmp,Normal,No,n,n,1,630
12,19,right,female,1,57,常人,C.bmp,Good,No,n,,0,0
12,19,right,female,1,58,常人,S.bmp,Normal,Yes,m,,0,0
12,19,right,female,1,59,坏人,C.bmp,Good,No,n,m,0,286
12,19,right,female,1,60,好人,T.bmp,Bad,No,n,n,1,943
12,19,right,female,2,1,坏人,T.bmp,Bad,Yes,m,,0,0
12,19,right,female,2,2,好人,C.bmp,Good,Yes,m,n,0,768
12,19,right,female,2,3,常人,S.bmp,Normal,Yes,m,m,1,1032
12,19,right,female,2,4,坏人,T.bmp,Bad,Yes,m,n,0,640
12,19,right,female,2,5,好人,T.bmp,Bad,No,n,,0,0
12,19,right,female,2,6,好人,S.bmp,Normal,No,n,,0,0
12,19,right,female,2,7,常人,T.bmp,Bad,No,n,n,1,1046
12,19,right,female,2,8,常人,C.bmp,Good,No,n,n,1,910
12,19,right,female,2,9,好人,C.bmp,Good,Yes,m,m,1,942
12,19,right,female,2,10,常人,S.bmp,Normal,Yes,m,m,1,814
12,19,right,female,2,11,坏人,S.bmp,Normal,No,n,n,1,590
12,19,right,female,2,12,坏人,C.bmp,Good,No,n,n,1,654
12,19,right,female,2,13,常人,S.bmp,Normal,Yes,m,m,1,679
12,19,right,female,2,14,好人,C.bmp,Good,Yes,m,,0,0
12,19,right,female,2,15,坏人,S.bmp,Normal,No,n,,0,0
12,19,right,female,2,16,常人,C.bmp,Good,No,n,,0,0
12,19,right,female,2,17,常人,T.bmp,Bad,No,n,n,1,727
12,19,right,female,2,18,坏人,C.bmp,Good,No,n,n,1,687
12,19,right,female,2,19,坏人,T.bmp,Bad,Yes,m,n,0,432
12,19,right,female,2,20,坏人,T.bmp,Bad,Yes,m,,0,0
12,19,right,female,2,21,常人,S.bmp,Normal,Yes,m,m,1,544
12,19,right,female,2,22,好人,T.bmp,Bad,No,n,n,1,568
12,19,right,female,2,23,好人,C.bmp,Good,Yes,m,m,1,824
12,19,right,female,2,24,好人,S.bmp,Normal,No,n,n,1,744
12,19,right,female,2,25,坏人,C.bmp,Good,No,n,,0,0
12,19,right,female,2,26,坏人,S.bmp,Normal,No,n,m,0,753
12,19,right,female,2,27,常人,S.bmp,Normal,Yes,m,m,1,536
12,19,right,female,2,28,常人,T.bmp,Bad,No,n,n,1,368
12,19,right,female,2,29,好人,T.bmp,Bad,No,n,n,1,1080
12,19,right,female,2,30,好人,S.bmp,Normal,No,n,m,0,1056
12,19,right,female,2,31,坏人,T.bmp,Bad,Yes,m,n,0,529
12,19,right,female,2,32,常人,S.bmp,Normal,Yes,m,m,1,1041
12,19,right,female,2,33,好人,C.bmp,Good,Yes,m,n,0,633
12,19,right,female,2,34,好人,C.bmp,Good,Yes,m,m,1,921
12,19,right,female,2,35,常人,C.bmp,Good,No,n,n,1,769
12,19,right,female,2,36,坏人,T.bmp,Bad,Yes,m,n,0,593
12,19,right,female,2,37,好人,C.bmp,Good,Yes,m,,0,0
12,19,right,female,2,38,坏人,T.bmp,Bad,Yes,m,n,0,898
12,19,right,female,2,39,好人,S.bmp,Normal,No,n,,0,0
12,19,right,female,2,40,坏人,T.bmp,Bad,Yes,m,n,0,962
12,19,right,female,2,41,常人,S.bmp,Normal,Yes,m,,0,0
12,19,right,female,2,42,好人,T.bmp,Bad,No,n,m,0,872
12,19,right,female,2,43,常人,S.bmp,Normal,Yes,m,,0,0
12,19,right,female,2,44,坏人,C.bmp,Good,No,n,,0,0
12,19,right,female,2,45,好人,C.bmp,Good,Yes,m,,0,0
12,19,right,female,2,46,常人,C.bmp,Good,No,n,m,0,1025
12,19,right,female,2,47,常人,T.bmp,Bad,No,n,,0,0
12,19,right,female,2,48,坏人,S.bmp,Normal,No,n,n,1,504
12,19,right,female,2,49,坏人,T.bmp,Bad,Yes,m,n,0,521
12,19,right,female,2,50,常人,S.bmp,Normal,Yes,m,m,1,753
12,19,right,female,2,51,好人,C.bmp,Good,Yes,m,,0,0
12,19,right,female,2,52,坏人,S.bmp,Normal,No,n,n,1,673
12,19,right,female,2,53,坏人,C.bmp,Good,No,n,n,1,705
12,19,right,female,2,54,常人,S.bmp,Normal,Yes,m,m,1,769
12,19,right,female,2,55,好人,T.bmp,Bad,No,n,n,1,522
12,19,right,female,2,56,好人,S.bmp,Normal,No,n,m,0,1098
12,19,right,female,2,57,坏人,T.bmp,Bad,Yes,m,,0,0
12,19,right,female,2,58,好人,C.bmp,Good,Yes,m,n,0,442
12,19,right,female,2,59,常人,C.bmp,Good,No,n,n,1,738
12,19,right,female,2,60,常人,T.bmp,Bad,No,n,,0,0
12,19,right,female,3,1,坏人,T.bmp,Bad,Yes,m,m,1,1053
12,19,right,female,3,2,好人,C.bmp,Good,Yes,m,n,0,797
12,19,right,female,3,3,坏人,S.bmp,Normal,No,n,m,0,733
12,19,right,female,3,4,常人,S.bmp,Normal,Yes,m,n,0,797
12,19,right,female,3,5,常人,S.bmp,Normal,Yes,m,,0,0
12,19,right,female,3,6,好人,S.bmp,Normal,No,n,,0,0
12,19,right,female,3,7,坏人,C.bmp,Good,No,n,n,1,806
12,19,right,female,3,8,常人,T.bmp,Bad,No,n,n,1,990
12,19,right,female,3,9,好人,C.bmp,Good,Yes,m,m,1,958
12,19,right,female,3,10,坏人,T.bmp,Bad,Yes,m,,0,0
12,19,right,female,3,11,常人,C.bmp,Good,No,n,,0,0
12,19,right,female,3,12,好人,T.bmp,Bad,No,n,,0,0
12,19,right,female,3,13,好人,C.bmp,Good,Yes,m,n,0,318
12,19,right,female,3,14,常人,T.bmp,Bad,No,n,n,1,639
12,19,right,female,3,15,好人,T.bmp,Bad,No,n,n,1,743
12,19,right,female,3,16,常人,C.bmp,Good,No,n,m,0,847
12,19,right,female,3,17,坏人,S.bmp,Normal,No,n,n,1,623
12,19,right,female,3,18,好人,S.bmp,Normal,No,n,n,1,591
12,19,right,female,3,19,好人,C.bmp,Good,Yes,m,n,0,327
12,19,right,female,3,20,坏人,C.bmp,Good,No,n,,0,0
12,19,right,female,3,21,坏人,T.bmp,Bad,Yes,m,n,0,576
12,19,right,female,3,22,坏人,T.bmp,Bad,Yes,m,,0,0
12,19,right,female,3,23,常人,S.bmp,Normal,Yes,m,m,1,647
12,19,right,female,3,24,常人,S.bmp,Normal,Yes,m,m,1,511
12,19,right,female,3,25,常人,C.bmp,Good,No,n,n,1,447
12,19,right,female,3,26,好人,S.bmp,Normal,No,n,n,1,992
12,19,right,female,3,27,常人,T.bmp,Bad,No,n,n,1,720
12,19,right,female,3,28,常人,S.bmp,Normal,Yes,m,n,0,944
12,19,right,female,3,29,好人,C.bmp,Good,Yes,m,n,0,1016
12,19,right,female,3,30,常人,S.bmp,Normal,Yes,m,m,1,880
12,19,right,female,3,31,坏人,T.bmp,Bad,Yes,m,n,0,512
12,19,right,female,3,32,好人,C.bmp,Good,Yes,m,,0,0
12,19,right,female,3,33,好人,T.bmp,Bad,No,n,n,1,833
12,19,right,female,3,34,坏人,S.bmp,Normal,No,n,m,0,705
12,19,right,female,3,35,坏人,T.bmp,Bad,Yes,m,n,0,649
12,19,right,female,3,36,坏人,C.bmp,Good,No,n,n,1,425
12,19,right,female,3,37,好人,S.bmp,Normal,No,n,n,1,905
12,19,right,female,3,38,坏人,T.bmp,Bad,Yes,m,m,1,802
12,19,right,female,3,39,常人,S.bmp,Normal,Yes,m,m,1,914
12,19,right,female,3,40,坏人,T.bmp,Bad,Yes,m,n,0,538
12,19,right,female,3,41,坏人,S.bmp,Normal,No,n,,0,0
12,19,right,female,3,42,好人,C.bmp,Good,Yes,m,m,1,866
12,19,right,female,3,43,坏人,C.bmp,Good,No,n,n,1,722
12,19,right,female,3,44,常人,C.bmp,Good,No,n,n,1,954
12,19,right,female,3,45,常人,T.bmp,Bad,No,n,n,1,738
12,19,right,female,3,46,好人,T.bmp,Bad,No,n,n,1,1034
12,19,right,female,3,47,好人,C.bmp,Good,Yes,m,m,1,802
12,19,right,female,3,48,常人,S.bmp,Normal,Yes,m,n,0,778
12,19,right,female,3,49,坏人,T.bmp,Bad,Yes,m,,0,0
12,19,right,female,3,50,好人,C.bmp,Good,Yes,m,,0,0
12,19,right,female,3,51,好人,T.bmp,Bad,No,n,n,1,611
12,19,right,female,3,52,常人,S.bmp,Normal,Yes,m,m,1,755
12,19,right,female,3,53,坏人,T.bmp,Bad,Yes,m,m,1,931
12,19,right,female,3,54,常人,C.bmp,Good,No,n,,0,0
12,19,right,female,3,55,常人,S.bmp,Normal,Yes,m,,0,0
12,19,right,female,3,56,常人,T.bmp,Bad,No,n,n,1,868
12,19,right,female,3,57,好人,S.bmp,Normal,No,n,n,1,956
12,19,right,female,3,58,坏人,S.bmp,Normal,No,n,n,1,1052
12,19,right,female,3,59,坏人,C.bmp,Good,No,n,n,1,532
12,19,right,female,3,60,好人,C.bmp,Good,Yes,m,n,0,1020
12,19,right,female,4,1,常人,C.bmp,Good,No,n,,0,0
12,19,right,female,4,2,坏人,C.bmp,Good,No,n,n,1,860
12,19,right,female,4,3,坏人,S.bmp,Normal,No,n,n,1,533
12,19,right,female,4,4,常人,T.bmp,Bad,No,n,n,1,245
12,19,right,female,4,5,好人,C.bmp,Good,Yes,m,m,1,733
12,19,right,female,4,6,坏人,T.bmp,Bad,Yes,m,n,0,629
12,19,right,female,4,7,常人,S.bmp,Normal,Yes,m,m,1,821
12,19,right,female,4,8,常人,S.bmp,Normal,Yes,m,m,1,454
12,19,right,female,4,9,好人,C.bmp,Good,Yes,m,n,0,606
12,19,right,female,4,10,好人,T.bmp,Bad,No,n,n,1,774
12,19,right,female,4,11,坏人,T.bmp,Bad,Yes,m,n,0,758
12,19,right,female,4,12,好人,S.bmp,Normal,No,n,,0,0
12,19,right,female,4,13,常人,T.bmp,Bad,No,n,n,1,798
12,19,right,female,4,14,坏人,C.bmp,Good,No,n,n,1,951
12,19,right,female,4,15,常人,C.bmp,Good,No,n,n,1,1088
12,19,right,female,4,16,好人,C.bmp,Good,Yes,m,m,1,1009
12,19,right,female,4,17,好人,S.bmp,Normal,No,n,n,1,921
12,19,right,female,4,18,坏人,S.bmp,Normal,No,n,n,1,569
12,19,right,female,4,19,坏人,T.bmp,Bad,Yes,m,m,1,678
12,19,right,female,4,20,好人,T.bmp,Bad,No,n,n,1,799
12,19,right,female,4,21,坏人,T.bmp,Bad,Yes,m,n,0,920
12,19,right,female,4,22,好人,C.bmp,Good,Yes,m,m,1,617
12,19,right,female,4,23,常人,S.bmp,Normal,Yes,m,m,1,833
12,19,right,female,4,24,常人,S.bmp,Normal,Yes,m,m,1,553
12,19,right,female,4,25,常人,S.bmp,Normal,Yes,m,m,1,457
12,19,right,female,4,26,坏人,S.bmp,Normal,No,n,n,1,554
12,19,right,female,4,27,常人,C.bmp,Good,No,n,,0,0
12,19,right,female,4,28,坏人,C.bmp,Good,No,n,n,1,986
12,19,right,female,4,29,常人,S.bmp,Normal,Yes,m,m,1,714
12,19,right,female,4,30,坏人,T.bmp,Bad,Yes,m,m,1,850
12,19,right,female,4,31,好人,T.bmp,Bad,No,n,n,1,674
12,19,right,female,4,32,坏人,T.bmp,Bad,Yes,m,m,1,915
12,19,right,female,4,33,好人,S.bmp,Normal,No,n,n,1,652
12,19,right,female,4,34,好人,C.bmp,Good,Yes,m,,0,0
12,19,right,female,4,35,好人,C.bmp,Good,Yes,m,m,1,957
12,19,right,female,4,36,常人,T.bmp,Bad,No,n,n,1,637
12,19,right,female,4,37,坏人,T.bmp,Bad,Yes,m,n,0,517
12,19,right,female,4,38,好人,S.bmp,Normal,No,n,n,1,989
12,19,right,female,4,39,常人,C.bmp,Good,No,n,m,0,534
12,19,right,female,4,40,好人,T.bmp,Bad,No,n,n,1,967
12,19,right,female,4,41,好人,C.bmp,Good,Yes,m,m,1,1031
12,19,right,female,4,42,常人,S.bmp,Normal,Yes,m,m,1,775
12,19,right,female,4,43,常人,T.bmp,Bad,No,n,n,1,711
12,19,right,female,4,44,常人,S.bmp,Normal,Yes,m,m,1,759
12,19,right,female,4,45,坏人,T.bmp,Bad,Yes,m,n,0,616
12,19,right,female,4,46,坏人,C.bmp,Good,No,n,n,1,944
12,19,right,female,4,47,好人,C.bmp,Good,Yes,m,m,1,640
12,19,right,female,4,48,坏人,S.bmp,Normal,No,n,n,1,624
12,19,right,female,4,49,好人,T.bmp,Bad,No,n,m,0,800
12,19,right,female,4,50,好人,C.bmp,Good,Yes,m,m,1,880
12,19,right,female,4,51,坏人,T.bmp,Bad,Yes,m,m,1,857
12,19,right,female,4,52,坏人,S.bmp,Normal,No,n,n,1,625
12,19,right,female,4,53,好人,S.bmp,Normal,No,n,m,0,745
12,19,right,female,4,54,好人,C.bmp,Good,Yes,m,n,0,809
12,19,right,female,4,55,常人,C.bmp,Good,No,n,n,1,1081
12,19,right,female,4,56,常人,S.bmp,Normal,Yes,m,m,1,833
12,19,right,female,4,57,常人,T.bmp,Bad,No,n,m,0,890
12,19,right,female,4,58,常人,S.bmp,Normal,Yes,m,n,0,1050
12,19,right,female,4,59,坏人,C.bmp,Good,No,n,n,1,1090
12,19,right,female,4,60,坏人,T.bmp,Bad,Yes,m,n,0,705
12,19,right,female,5,1,坏人,T.bmp,Bad,Yes,m,m,1,1090
12,19,right,female,5,2,常人,S.bmp,Normal,Yes,m,m,1,690
12,19,right,female,5,3,常人,T.bmp,Bad,No,n,n,1,1011
12,19,right,female,5,4,好人,C.bmp,Good,Yes,m,m,1,747
12,19,right,female,5,5,好人,S.bmp,Normal,No,n,n,1,699
12,19,right,female,5,6,好人,T.bmp,Bad,No,n,m,0,1011
12,19,right,female,5,7,坏人,S.bmp,Normal,No,n,n,1,811
12,19,right,female,5,8,常人,C.bmp,Good,No,n,m,0,931
12,19,right,female,5,9,坏人,C.bmp,Good,No,n,n,1,468
12,19,right,female,5,10,好人,C.bmp,Good,Yes,m,n,0,732
12,19,right,female,5,11,常人,S.bmp,Normal,Yes,m,m,1,700
12,19,right,female,5,12,坏人,T.bmp,Bad,Yes,m,m,1,740
12,19,right,female,5,13,好人,C.bmp,Good,Yes,m,m,1,836
12,19,right,female,5,14,好人,T.bmp,Bad,No,n,n,1,988
12,19,right,female,5,15,坏人,T.bmp,Bad,Yes,m,n,0,693
12,19,right,female,5,16,常人,C.bmp,Good,No,n,n,1,868
12,19,right,female,5,17,常人,T.bmp,Bad,No,n,n,1,852
12,19,right,female,5,18,好人,S.bmp,Normal,No,n,m,0,596
12,19,right,female,5,19,坏人,T.bmp,Bad,Yes,m,,0,0
12,19,right,female,5,20,好人,C.bmp,Good,Yes,m,m,1,932
12,19,right,female,5,21,坏人,C.bmp,Good,No,n,n,1,469
12,19,right,female,5,22,常人,S.bmp,Normal,Yes,m,m,1,1077
12,19,right,female,5,23,常人,S.bmp,Normal,Yes,m,m,1,469
12,19,right,female,5,24,坏人,S.bmp,Normal,No,n,n,1,645
12,19,right,female,5,25,好人,C.bmp,Good,Yes,m,,0,0
12,19,right,female,5,26,坏人,S.bmp,Normal,No,n,n,1,541
12,19,right,female,5,27,坏人,T.bmp,Bad,Yes,m,n,0,502
12,19,right,female,5,28,好人,S.bmp,Normal,No,n,m,0,782
12,19,right,female,5,29,好人,T.bmp,Bad,No,n,n,1,734
12,19,right,female,5,30,常人,C.bmp,Good,No,n,m,0,798
12,19,right,female,5,31,好人,C.bmp,Good,Yes,m,,0,0
12,19,right,female,5,32,坏人,T.bmp,Bad,Yes,m,m,1,892
12,19,right,female,5,33,常人,T.bmp,Bad,No,n,n,1,693
12,19,right,female,5,34,常人,S.bmp,Normal,Yes,m,m,1,829
12,19,right,female,5,35,坏人,C.bmp,Good,No,n,n,1,749
12,19,right,female,5,36,常人,S.bmp,Normal,Yes,m,m,1,677
12,19,right,female,5,37,坏人,T.bmp,Bad,Yes,m,m,1,812
12,19,right,female,5,38,好人,T.bmp,Bad,No,n,n,1,748
12,19,right,female,5,39,常人,T.bmp,Bad,No,n,n,1,973
12,19,right,female,5,40,坏人,T.bmp,Bad,Yes,m,n,0,541
12,19,right,female,5,41,坏人,S.bmp,Normal,No,n,m,0,885
12,19,right,female,5,42,坏人,C.bmp,Good,No,n,n,1,741
12,19,right,female,5,43,常人,S.bmp,Normal,Yes,m,m,1,685
12,19,right,female,5,44,好人,C.bmp,Good,Yes,m,m,1,909
12,19,right,female,5,45,常人,C.bmp,Good,No,n,n,1,614
12,19,right,female,5,46,常人,S.bmp,Normal,Yes,m,m,1,838
12,19,right,female,5,47,好人,S.bmp,Normal,No,n,n,1,926
12,19,right,female,5,48,好人,C.bmp,Good,Yes,m,m,1,966
12,19,right,female,5,49,坏人,C.bmp,Good,No,n,n,1,590
12,19,right,female,5,50,好人,C.bmp,Good,Yes,m,m,1,1014
12,19,right,female,5,51,好人,C.bmp,Good,Yes,m,m,1,423
12,19,right,female,5,52,坏人,T.bmp,Bad,Yes,m,m,1,775
12,19,right,female,5,53,常人,C.bmp,Good,No,n,n,1,695
12,19,right,female,5,54,常人,S.bmp,Normal,Yes,m,m,1,551
12,19,right,female,5,55,坏人,T.bmp,Bad,Yes,m,n,0,623
12,19,right,female,5,56,常人,T.bmp,Bad,No,n,n,1,870
12,19,right,female,5,57,坏人,S.bmp,Normal,No,n,n,1,1007
12,19,right,female,5,58,好人,S.bmp,Normal,No,n,m,0,759
12,19,right,female,5,59,好人,T.bmp,Bad,No,n,,0,0
12,19,right,female,5,60,常人,S.bmp,Normal,Yes,m,m,1,767
12,19,right,female,6,1,常人,S.bmp,Normal,Yes,m,m,1,752
12,19,right,female,6,2,坏人,T.bmp,Bad,Yes,m,m,1,688
12,19,right,female,6,3,坏人,T.bmp,Bad,Yes,m,m,1,657
12,19,right,female,6,4,常人,S.bmp,Normal,Yes,m,m,1,721
12,19,right,female,6,5,常人,T.bmp,Bad,No,n,n,1,737
12,19,right,female,6,6,好人,T.bmp,Bad,No,n,n,1,769
12,19,right,female,6,7,常人,C.bmp,Good,No,n,n,1,1057
12,19,right,female,6,8,好人,C.bmp,Good,Yes,m,m,1,729
12,19,right,female,6,9,坏人,S.bmp,Normal,No,n,n,1,866
12,19,right,female,6,10,坏人,C.bmp,Good,No,n,n,1,874
12,19,right,female,6,11,好人,S.bmp,Normal,No,n,m,0,777
12,19,right,female,6,12,好人,C.bmp,Good,Yes,m,n,0,881
12,19,right,female,6,13,坏人,T.bmp,Bad,Yes,m,m,1,1057
12,19,right,female,6,14,常人,S.bmp,Normal,Yes,m,m,1,841
12,19,right,female,6,15,常人,T.bmp,Bad,No,n,n,1,1098
12,19,right,female,6,16,好人,C.bmp,Good,Yes,m,m,1,699
12,19,right,female,6,17,常人,S.bmp,Normal,Yes,m,n,0,562
12,19,right,female,6,18,常人,C.bmp,Good,No,n,m,0,994
12,19,right,female,6,19,坏人,T.bmp,Bad,Yes,m,n,0,610
12,19,right,female,6,20,坏人,S.bmp,Normal,No,n,,0,0
12,19,right,female,6,21,好人,S.bmp,Normal,No,n,n,1,1097
12,19,right,female,6,22,坏人,C.bmp,Good,No,n,n,1,937
12,19,right,female,6,23,好人,C.bmp,Good,Yes,m,m,1,1073
12,19,right,female,6,24,好人,T.bmp,Bad,No,n,n,1,905
12,19,right,female,6,25,好人,T.bmp,Bad,No,n,n,1,577
12,19,right,female,6,26,好人,C.bmp,Good,Yes,m,m,1,1009
12,19,right,female,6,27,坏人,C.bmp,Good,No,n,n,1,658
12,19,right,female,6,28,常人,T.bmp,Bad,No,n,n,1,938
12,19,right,female,6,29,常人,C.bmp,Good,No,n,m,0,762
12,19,right,female,6,30,好人,S.bmp,Normal,No,n,n,1,858
12,19,right,female,6,31,坏人,T.bmp,Bad,Yes,m,n,0,650
12,19,right,female,6,32,常人,S.bmp,Normal,Yes,m,m,1,626
12,19,right,female,6,33,坏人,S.bmp,Normal,No,n,n,1,602
12,19,right,female,6,34,坏人,T.bmp,Bad,Yes,m,n,0,571
12,19,right,female,6,35,常人,S.bmp,Normal,Yes,m,m,1,564
12,19,right,female,6,36,好人,C.bmp,Good,Yes,m,m,1,812
12,19,right,female,6,37,常人,C.bmp,Good,No,n,n,1,748
12,19,right,female,6,38,坏人,T.bmp,Bad,Yes,m,n,0,684
12,19,right,female,6,39,好人,C.bmp,Good,Yes,m,m,1,861
12,19,right,female,6,40,坏人,T.bmp,Bad,Yes,m,m,1,941
12,19,right,female,6,41,常人,T.bmp,Bad,No,n,m,0,709
12,19,right,female,6,42,常人,S.bmp,Normal,Yes,m,m,1,837
12,19,right,female,6,43,常人,S.bmp,Normal,Yes,m,m,1,741
12,19,right,female,6,44,好人,C.bmp,Good,Yes,m,m,1,909
12,19,right,female,6,45,坏人,S.bmp,Normal,No,n,n,1,766
12,19,right,female,6,46,好人,S.bmp,Normal,No,n,m,0,903
12,19,right,female,6,47,好人,T.bmp,Bad,No,n,n,1,1000
12,19,right,female,6,48,坏人,C.bmp,Good,No,n,n,1,872
12,19,right,female,6,49,常人,T.bmp,Bad,No,n,n,1,976
12,19,right,female,6,50,坏人,C.bmp,Good,No,n,n,1,1000
12,19,right,female,6,51,好人,T.bmp,Bad,No,n,n,1,833
12,19,right,female,6,52,好人,S.bmp,Normal,No,n,n,1,777
12,19,right,female,6,53,坏人,T.bmp,Bad,Yes,m,m,1,808
12,19,right,female,6,54,常人,S.bmp,Normal,Yes,m,m,1,808
12,19,right,female,6,55,常人,C.bmp,Good,No,n,n,1,944
12,19,right,female,6,56,坏人,T.bmp,Bad,Yes,m,m,1,944
12,19,right,female,6,57,常人,S.bmp,Normal,Yes,m,m,1,865
12,19,right,female,6,58,好人,C.bmp,Good,Yes,m,n,0,1041
12,19,right,female,6,59,坏人,S.bmp,Normal,No,n,n,1,785
12,19,right,female,6,60,好人,C.bmp,Good,Yes,m,m,1,857
13,24,right,female,,1,好人,S.bmp,Bad,No,m,,0,0
13,24,right,female,,2,常人,S.bmp,Bad,No,m,n,0,674
13,24,right,female,,3,好人,T.bmp,Good,Yes,n,n,1,554
13,24,right,female,,4,坏人,S.bmp,Bad,Yes,n,m,0,642
13,24,right,female,,5,坏人,T.bmp,Good,No,m,n,0,978
13,24,right,female,,6,坏人,S.bmp,Bad,Yes,n,n,1,602
13,24,right,female,,7,好人,C.bmp,Normal,No,m,n,0,731
13,24,right,female,,8,常人,C.bmp,Normal,Yes,n,m,0,1075
13,24,right,female,,9,常人,T.bmp,Good,No,m,n,0,779
13,24,right,female,,10,好人,T.bmp,Good,Yes,n,n,1,795
13,24,right,female,,11,常人,C.bmp,Normal,Yes,n,n,1,1003
13,24,right,female,,12,坏人,C.bmp,Normal,No,m,m,1,987
13,24,right,female,,13,坏人,T.bmp,Good,No,m,n,0,918
13,24,right,female,,14,常人,T.bmp,Good,No,m,n,0,1023
13,24,right,female,,15,好人,S.bmp,Bad,No,m,m,1,991
13,24,right,female,,16,坏人,C.bmp,Normal,No,m,m,1,942
13,24,right,female,,17,好人,C.bmp,Normal,No,m,m,1,998
13,24,right,female,,18,坏人,S.bmp,Bad,Yes,n,n,1,1054
13,24,right,female,,19,常人,C.bmp,Normal,Yes,n,m,0,878
13,24,right,female,,20,好人,T.bmp,Good,Yes,n,n,1,766
13,24,right,female,,21,坏人,S.bmp,Bad,Yes,n,n,1,687
13,24,right,female,,22,常人,S.bmp,Bad,No,m,m,1,791
13,24,right,female,,23,好人,T.bmp,Good,Yes,n,n,1,735
13,24,right,female,,24,常人,C.bmp,Normal,Yes,n,m,0,1015
13,24,right,female,1,1,好人,T.bmp,Good,Yes,n,n,1,782
13,24,right,female,1,2,坏人,C.bmp,Normal,No,m,,0,0
13,24,right,female,1,3,坏人,S.bmp,Bad,Yes,n,n,1,806
13,24,right,female,1,4,常人,T.bmp,Good,No,m,m,1,447
13,24,right,female,1,5,常人,C.bmp,Normal,Yes,n,m,0,752
13,24,right,female,1,6,好人,T.bmp,Good,Yes,n,n,1,801
13,24,right,female,1,7,坏人,T.bmp,Good,No,m,m,1,889
13,24,right,female,1,8,坏人,S.bmp,Bad,Yes,n,n,1,665
13,24,right,female,1,9,常人,C.bmp,Normal,Yes,n,m,0,777
13,24,right,female,1,10,好人,C.bmp,Normal,No,m,m,1,953
13,24,right,female,1,11,好人,S.bmp,Bad,No,m,m,1,890
13,24,right,female,1,12,常人,S.bmp,Bad,No,m,m,1,1042
13,24,right,female,1,13,坏人,S.bmp,Bad,Yes,n,n,1,714
13,24,right,female,1,14,常人,C.bmp,Normal,Yes,n,m,0,826
13,24,right,female,1,15,坏人,T.bmp,Good,No,m,m,1,930
13,24,right,female,1,16,坏人,S.bmp,Bad,Yes,n,n,1,922
13,24,right,female,1,17,常人,C.bmp,Normal,Yes,n,n,1,995
13,24,right,female,1,18,坏人,C.bmp,Normal,No,m,m,1,778
13,24,right,female,1,19,好人,T.bmp,Good,Yes,n,n,1,930
13,24,right,female,1,20,好人,S.bmp,Bad,No,m,m,1,866
13,24,right,female,1,21,常人,T.bmp,Good,No,m,,0,0
13,24,right,female,1,22,好人,T.bmp,Good,Yes,n,n,1,786
13,24,right,female,1,23,好人,C.bmp,Normal,No,m,m,1,922
13,24,right,female,1,24,常人,S.bmp,Bad,No,m,n,0,771
13,24,right,female,1,25,常人,C.bmp,Normal,Yes,n,n,1,923
13,24,right,female,1,26,坏人,S.bmp,Bad,Yes,n,n,1,811
13,24,right,female,1,27,常人,S.bmp,Bad,No,m,m,1,739
13,24,right,female,1,28,常人,T.bmp,Good,No,m,m,1,843
13,24,right,female,1,29,坏人,T.bmp,Good,No,m,n,0,763
13,24,right,female,1,30,好人,S.bmp,Bad,No,m,m,1,803
13,24,right,female,1,31,常人,C.bmp,Normal,Yes,n,m,0,940
13,24,right,female,1,32,好人,C.bmp,Normal,No,m,m,1,740
13,24,right,female,1,33,好人,T.bmp,Good,Yes,n,n,1,636
13,24,right,female,1,34,好人,T.bmp,Good,Yes,n,m,0,596
13,24,right,female,1,35,坏人,S.bmp,Bad,Yes,n,n,1,804
13,24,right,female,1,36,坏人,C.bmp,Normal,No,m,m,1,724
13,24,right,female,1,37,好人,S.bmp,Bad,No,m,n,0,644
13,24,right,female,1,38,好人,T.bmp,Good,Yes,n,n,1,797
13,24,right,female,1,39,坏人,T.bmp,Good,No,m,n,0,757
13,24,right,female,1,40,坏人,S.bmp,Bad,Yes,n,n,1,717
13,24,right,female,1,41,坏人,C.bmp,Normal,No,m,m,1,933
13,24,right,female,1,42,好人,C.bmp,Normal,No,m,m,1,725
13,24,right,female,1,43,常人,C.bmp,Normal,Yes,n,m,0,757
13,24,right,female,1,44,常人,S.bmp,Bad,No,m,m,1,694
13,24,right,female,1,45,常人,T.bmp,Good,No,m,n,0,779
13,24,right,female,1,46,好人,T.bmp,Good,Yes,n,n,1,659
13,24,right,female,1,47,常人,C.bmp,Normal,Yes,n,m,0,707
13,24,right,female,1,48,坏人,S.bmp,Bad,Yes,n,n,1,715
13,24,right,female,1,49,常人,S.bmp,Bad,No,m,m,1,707
13,24,right,female,1,50,好人,T.bmp,Good,Yes,n,n,1,587
13,24,right,female,1,51,坏人,T.bmp,Good,No,m,m,1,820
13,24,right,female,1,52,好人,C.bmp,Normal,No,m,m,1,748
13,24,right,female,1,53,常人,T.bmp,Good,No,m,n,0,660
13,24,right,female,1,54,常人,C.bmp,Normal,Yes,n,n,1,820
13,24,right,female,1,55,坏人,S.bmp,Bad,Yes,n,n,1,964
13,24,right,female,1,56,坏人,S.bmp,Bad,Yes,n,m,0,804
13,24,right,female,1,57,好人,S.bmp,Bad,No,m,n,0,788
13,24,right,female,1,58,坏人,C.bmp,Normal,No,m,m,1,893
13,24,right,female,1,59,常人,C.bmp,Normal,Yes,n,m,0,837
13,24,right,female,1,60,好人,T.bmp,Good,Yes,n,n,1,693
13,24,right,female,2,1,好人,T.bmp,Good,Yes,n,n,1,648
13,24,right,female,2,2,常人,C.bmp,Normal,Yes,n,n,1,928
13,24,right,female,2,3,好人,T.bmp,Good,Yes,n,n,1,592
13,24,right,female,2,4,常人,T.bmp,Good,No,m,n,0,527
13,24,right,female,2,5,常人,S.bmp,Bad,No,m,m,1,616
13,24,right,female,2,6,坏人,T.bmp,Good,No,m,n,0,744
13,24,right,female,2,7,常人,C.bmp,Normal,Yes,n,m,0,864
13,24,right,female,2,8,坏人,S.bmp,Bad,Yes,n,n,1,744
13,24,right,female,2,9,坏人,C.bmp,Normal,No,m,m,1,872
13,24,right,female,2,10,好人,C.bmp,Normal,No,m,m,1,824
13,24,right,female,2,11,坏人,S.bmp,Bad,Yes,n,n,1,656
13,24,right,female,2,12,好人,S.bmp,Bad,No,m,m,1,721
13,24,right,female,2,13,常人,C.bmp,Normal,Yes,n,n,1,793
13,24,right,female,2,14,好人,C.bmp,Normal,No,m,n,0,689
13,24,right,female,2,15,坏人,S.bmp,Bad,Yes,n,n,1,785
13,24,right,female,2,16,坏人,C.bmp,Normal,No,m,m,1,641
13,24,right,female,2,17,常人,S.bmp,Bad,No,m,m,1,913
13,24,right,female,2,18,好人,T.bmp,Good,Yes,n,n,1,690
13,24,right,female,2,19,坏人,T.bmp,Good,No,m,m,1,714
13,24,right,female,2,20,好人,S.bmp,Bad,No,m,n,0,698
13,24,right,female,2,21,好人,T.bmp,Good,Yes,n,n,1,634
13,24,right,female,2,22,常人,T.bmp,Good,No,m,m,1,586
13,24,right,female,2,23,常人,C.bmp,Normal,Yes,n,n,1,698
13,24,right,female,2,24,坏人,S.bmp,Bad,Yes,n,n,1,706
13,24,right,female,2,25,常人,C.bmp,Normal,Yes,n,n,1,1043
13,24,right,female,2,26,坏人,C.bmp,Normal,No,m,m,1,699
13,24,right,female,2,27,好人,C.bmp,Normal,No,m,m,1,547
13,24,right,female,2,28,好人,S.bmp,Bad,No,m,n,0,491
13,24,right,female,2,29,坏人,S.bmp,Bad,Yes,n,n,1,595
13,24,right,female,2,30,常人,T.bmp,Good,No,m,n,0,587
13,24,right,female,2,31,好人,T.bmp,Good,Yes,n,n,1,611
13,24,right,female,2,32,坏人,S.bmp,Bad,Yes,n,m,0,747
13,24,right,female,2,33,常人,C.bmp,Normal,Yes,n,n,1,947
13,24,right,female,2,34,坏人,T.bmp,Good,No,m,m,1,835
13,24,right,female,2,35,好人,T.bmp,Good,Yes,n,n,1,771
13,24,right,female,2,36,常人,S.bmp,Bad,No,m,m,1,987
13,24,right,female,2,37,坏人,S.bmp,Bad,Yes,n,m,0,587
13,24,right,female,2,38,常人,T.bmp,Good,No,m,n,0,652
13,24,right,female,2,39,常人,C.bmp,Normal,Yes,n,n,1,844
13,24,right,female,2,40,常人,C.bmp,Normal,Yes,n,m,0,820
13,24,right,female,2,41,好人,T.bmp,Good,Yes,n,n,1,948
13,24,right,female,2,42,坏人,S.bmp,Bad,Yes,n,n,1,796
13,24,right,female,2,43,好人,T.bmp,Good,Yes,n,n,1,844
13,24,right,female,2,44,好人,C.bmp,Normal,No,m,n,0,676
13,24,right,female,2,45,好人,S.bmp,Bad,No,m,m,1,733
13,24,right,female,2,46,坏人,T.bmp,Good,No,m,m,1,925
13,24,right,female,2,47,常人,S.bmp,Bad,No,m,m,1,853
13,24,right,female,2,48,坏人,C.bmp,Normal,No,m,m,1,845
13,24,right,female,2,49,坏人,T.bmp,Good,No,m,m,1,797
13,24,right,female,2,50,常人,S.bmp,Bad,No,m,n,0,613
13,24,right,female,2,51,坏人,C.bmp,Normal,No,m,n,0,814
13,24,right,female,2,52,好人,S.bmp,Bad,No,m,m,1,766
13,24,right,female,2,53,常人,T.bmp,Good,No,m,n,0,798
13,24,right,female,2,54,好人,T.bmp,Good,Yes,n,n,1,662
13,24,right,female,2,55,坏人,S.bmp,Bad,Yes,n,n,1,734
13,24,right,female,2,56,好人,T.bmp,Good,Yes,n,n,1,725
13,24,right,female,2,57,坏人,S.bmp,Bad,Yes,n,n,1,805
13,24,right,female,2,58,常人,C.bmp,Normal,Yes,n,n,1,766
13,24,right,female,2,59,好人,C.bmp,Normal,No,m,m,1,782
13,24,right,female,2,60,常人,C.bmp,Normal,Yes,n,n,1,958
13,24,right,female,3,1,坏人,T.bmp,Good,No,m,n,0,665
13,24,right,female,3,2,好人,T.bmp,Good,Yes,n,n,1,649
13,24,right,female,3,3,常人,C.bmp,Normal,Yes,n,m,0,561
13,24,right,female,3,4,好人,S.bmp,Bad,No,m,n,0,705
13,24,right,female,3,5,坏人,C.bmp,Normal,No,m,m,1,842
13,24,right,female,3,6,好人,T.bmp,Good,Yes,n,n,1,906
13,24,right,female,3,7,常人,C.bmp,Normal,Yes,n,n,1,794
13,24,right,female,3,8,坏人,S.bmp,Bad,Yes,n,n,1,786
13,24,right,female,3,9,常人,T.bmp,Good,No,m,n,0,746
13,24,right,female,3,10,坏人,S.bmp,Bad,Yes,n,n,1,810
13,24,right,female,3,11,常人,S.bmp,Bad,No,m,m,1,834
13,24,right,female,3,12,好人,C.bmp,Normal,No,m,n,0,643
13,24,right,female,3,13,常人,C.bmp,Normal,Yes,n,n,1,635
13,24,right,female,3,14,好人,T.bmp,Good,Yes,n,n,1,795
13,24,right,female,3,15,好人,C.bmp,Normal,No,m,m,1,899
13,24,right,female,3,16,常人,T.bmp,Good,No,m,n,0,843
13,24,right,female,3,17,好人,T.bmp,Good,Yes,n,n,1,810
13,24,right,female,3,18,坏人,S.bmp,Bad,Yes,n,m,0,731
13,24,right,female,3,19,坏人,C.bmp,Normal,No,m,m,1,1019
13,24,right,female,3,20,坏人,S.bmp,Bad,Yes,n,n,1,723
13,24,right,female,3,21,常人,C.bmp,Normal,Yes,n,n,1,795
13,24,right,female,3,22,坏人,T.bmp,Good,No,m,m,1,723
13,24,right,female,3,23,好人,S.bmp,Bad,No,m,n,0,867
13,24,right,female,3,24,常人,S.bmp,Bad,No,m,m,1,787
13,24,right,female,3,25,好人,S.bmp,Bad,No,m,m,1,828
13,24,right,female,3,26,好人,T.bmp,Good,Yes,n,n,1,764
13,24,right,female,3,27,常人,C.bmp,Normal,Yes,n,n,1,700
13,24,right,female,3,28,好人,T.bmp,Good,Yes,n,m,0,908
13,24,right,female,3,29,坏人,S.bmp,Bad,Yes,n,n,1,748
13,24,right,female,3,30,常人,S.bmp,Bad,No,m,n,0,908
13,24,right,female,3,31,坏人,T.bmp,Good,No,m,m,1,860
13,24,right,female,3,32,坏人,S.bmp,Bad,Yes,n,m,0,757
13,24,right,female,3,33,坏人,C.bmp,Normal,No,m,n,0,885
13,24,right,female,3,34,好人,C.bmp,Normal,No,m,m,1,781
13,24,right,female,3,35,常人,T.bmp,Good,No,m,n,0,773
13,24,right,female,3,36,常人,C.bmp,Normal,Yes,n,n,1,949
13,24,right,female,3,37,好人,T.bmp,Good,Yes,n,n,1,757
13,24,right,female,3,38,常人,C.bmp,Normal,Yes,n,m,0,702
13,24,right,female,3,39,好人,S.bmp,Bad,No,m,m,1,974
13,24,right,female,3,40,坏人,S.bmp,Bad,Yes,n,n,1,926
13,24,right,female,3,41,好人,C.bmp,Normal,No,m,n,0,926
13,24,right,female,3,42,坏人,C.bmp,Normal,No,m,m,1,925
13,24,right,female,3,43,坏人,S.bmp,Bad,Yes,n,n,1,789
13,24,right,female,3,44,好人,T.bmp,Good,Yes,n,n,1,733
13,24,right,female,3,45,常人,C.bmp,Normal,Yes,n,n,1,814
13,24,right,female,3,46,坏人,T.bmp,Good,No,m,m,1,846
13,24,right,female,3,47,常人,T.bmp,Good,No,m,n,0,870
13,24,right,female,3,48,常人,S.bmp,Bad,No,m,m,1,902
13,24,right,female,3,49,好人,C.bmp,Normal,No,m,m,1,1006
13,24,right,female,3,50,好人,T.bmp,Good,Yes,n,n,1,710
13,24,right,female,3,51,坏人,C.bmp,Normal,No,m,m,1,719
13,24,right,female,3,52,坏人,S.bmp,Bad,Yes,n,n,1,576
13,24,right,female,3,53,常人,C.bmp,Normal,Yes,n,n,1,809
13,24,right,female,3,54,坏人,S.bmp,Bad,Yes,n,n,1,881
13,24,right,female,3,55,常人,S.bmp,Bad,No,m,m,1,713
13,24,right,female,3,56,常人,T.bmp,Good,No,m,n,0,665
13,24,right,female,3,57,好人,S.bmp,Bad,No,m,m,1,777
13,24,right,female,3,58,好人,T.bmp,Good,Yes,n,n,1,866
13,24,right,female,3,59,坏人,T.bmp,Good,No,m,m,1,954
13,24,right,female,3,60,常人,C.bmp,Normal,Yes,n,m,0,858
13,24,right,female,4,1,常人,T.bmp,Good,No,m,n,0,781
13,24,right,female,4,2,坏人,T.bmp,Good,No,m,m,1,725
13,24,right,female,4,3,好人,C.bmp,Normal,No,m,m,1,876
13,24,right,female,4,4,坏人,S.bmp,Bad,Yes,n,n,1,756
13,24,right,female,4,5,坏人,C.bmp,Normal,No,m,,0,0
13,24,right,female,4,6,好人,S.bmp,Bad,No,m,n,0,709
13,24,right,female,4,7,常人,S.bmp,Bad,No,m,m,1,781
13,24,right,female,4,8,常人,C.bmp,Normal,Yes,n,n,1,741
13,24,right,female,4,9,好人,T.bmp,Good,Yes,n,n,1,781
13,24,right,female,4,10,坏人,S.bmp,Bad,Yes,n,m,0,557
13,24,right,female,4,11,常人,C.bmp,Normal,Yes,n,m,0,653
13,24,right,female,4,12,好人,T.bmp,Good,Yes,n,n,1,574
13,24,right,female,4,13,坏人,C.bmp,Normal,No,m,m,1,710
13,24,right,female,4,14,常人,C.bmp,Normal,Yes,n,n,1,678
13,24,right,female,4,15,常人,T.bmp,Good,No,m,m,1,822
13,24,right,female,4,16,好人,C.bmp,Normal,No,m,m,1,894
13,24,right,female,4,17,好人,T.bmp,Good,Yes,n,n,1,718
13,24,right,female,4,18,坏人,S.bmp,Bad,Yes,n,n,1,639
13,24,right,female,4,19,常人,S.bmp,Bad,No,m,m,1,823
13,24,right,female,4,20,坏人,T.bmp,Good,No,m,m,1,903
13,24,right,female,4,21,好人,T.bmp,Good,Yes,n,n,1,559
13,24,right,female,4,22,常人,C.bmp,Normal,Yes,n,m,0,951
13,24,right,female,4,23,坏人,S.bmp,Bad,Yes,n,n,1,863
13,24,right,female,4,24,好人,S.bmp,Bad,No,m,m,1,807
13,24,right,female,4,25,好人,T.bmp,Good,Yes,n,n,1,672
13,24,right,female,4,26,坏人,S.bmp,Bad,Yes,n,m,0,712
13,24,right,female,4,27,好人,S.bmp,Bad,No,m,m,1,568
13,24,right,female,4,28,好人,T.bmp,Good,Yes,n,n,1,647
13,24,right,female,4,29,常人,T.bmp,Good,No,m,m,1,720
13,24,right,female,4,30,坏人,S.bmp,Bad,Yes,n,n,1,823
13,24,right,female,4,31,好人,C.bmp,Normal,No,m,m,1,848
13,24,right,female,4,32,常人,C.bmp,Normal,Yes,n,n,1,624
13,24,right,female,4,33,常人,S.bmp,Bad,No,m,m,1,800
13,24,right,female,4,34,坏人,C.bmp,Normal,No,m,m,1,912
13,24,right,female,4,35,常人,C.bmp,Normal,Yes,n,m,0,968
13,24,right,female,4,36,坏人,T.bmp,Good,No,m,n,0,536
13,24,right,female,4,37,坏人,S.bmp,Bad,Yes,n,n,1,800
13,24,right,female,4,38,常人,T.bmp,Good,No,m,n,0,729
13,24,right,female,4,39,常人,C.bmp,Normal,Yes,n,m,0,841
13,24,right,female,4,40,坏人,S.bmp,Bad,Yes,n,n,1,761
13,24,right,female,4,41,好人,T.bmp,Good,Yes,n,n,1,681
13,24,right,female,4,42,常人,S.bmp,Bad,No,m,m,1,785
13,24,right,female,4,43,好人,C.bmp,Normal,No,m,n,0,713
13,24,right,female,4,44,坏人,T.bmp,Good,No,m,m,1,825
13,24,right,female,4,45,常人,C.bmp,Normal,Yes,n,n,1,874
13,24,right,female,4,46,好人,S.bmp,Bad,No,m,m,1,754
13,24,right,female,4,47,坏人,C.bmp,Normal,No,m,m,1,866
13,24,right,female,4,48,好人,T.bmp,Good,Yes,n,n,1,922
13,24,right,female,4,49,好人,T.bmp,Good,Yes,n,n,1,522
13,24,right,female,4,50,常人,T.bmp,Good,No,m,m,1,626
13,24,right,female,4,51,好人,C.bmp,Normal,No,m,m,1,643
13,24,right,female,4,52,坏人,T.bmp,Good,No,m,m,1,683
13,24,right,female,4,53,常人,C.bmp,Normal,Yes,n,n,1,723
13,24,right,female,4,54,好人,S.bmp,Bad,No,m,m,1,787
13,24,right,female,4,55,坏人,S.bmp,Bad,Yes,n,m,0,618
13,24,right,female,4,56,坏人,C.bmp,Normal,No,m,m,1,618
13,24,right,female,4,57,常人,C.bmp,Normal,Yes,n,n,1,738
13,24,right,female,4,58,好人,T.bmp,Good,Yes,n,n,1,731
13,24,right,female,4,59,坏人,S.bmp,Bad,Yes,n,n,1,827
13,24,right,female,4,60,常人,S.bmp,Bad,No,m,m,1,787
13,24,right,female,5,1,坏人,S.bmp,Bad,Yes,n,,0,0
13,24,right,female,5,2,坏人,S.bmp,Bad,Yes,n,m,0,70
13,24,right,female,5,3,好人,S.bmp,Bad,No,m,m,1,822
13,24,right,female,5,4,好人,C.bmp,Normal,No,m,m,1,798
13,24,right,female,5,5,好人,T.bmp,Good,Yes,n,n,1,799
13,24,right,female,5,6,常人,C.bmp,Normal,Yes,n,m,0,983
13,24,right,female,5,7,常人,C.bmp,Normal,Yes,n,n,1,759
13,24,right,female,5,8,常人,T.bmp,Good,No,m,n,0,567
13,24,right,female,5,9,常人,S.bmp,Bad,No,m,m,1,655
13,24,right,female,5,10,坏人,T.bmp,Good,No,m,m,1,935
13,24,right,female,5,11,好人,T.bmp,Good,Yes,n,m,0,824
13,24,right,female,5,12,坏人,C.bmp,Normal,No,m,m,1,864
13,24,right,female,5,13,常人,S.bmp,Bad,No,m,m,1,736
13,24,right,female,5,14,好人,T.bmp,Good,Yes,n,n,1,568
13,24,right,female,5,15,坏人,S.bmp,Bad,Yes,n,n,1,767
13,24,right,female,5,16,常人,C.bmp,Normal,Yes,n,n,1,823
13,24,right,female,5,17,常人,C.bmp,Normal,Yes,n,n,1,671
13,24,right,female,5,18,好人,T.bmp,Good,Yes,n,n,1,664
13,24,right,female,5,19,常人,T.bmp,Good,No,m,n,0,736
13,24,right,female,5,20,坏人,T.bmp,Good,No,m,m,1,808
13,24,right,female,5,21,好人,S.bmp,Bad,No,m,m,1,1016
13,24,right,female,5,22,坏人,S.bmp,Bad,Yes,n,n,1,736
13,24,right,female,5,23,坏人,C.bmp,Normal,No,m,m,1,848
13,24,right,female,5,24,好人,C.bmp,Normal,No,m,n,0,913
13,24,right,female,5,25,好人,T.bmp,Good,Yes,n,n,1,705
13,24,right,female,5,26,常人,T.bmp,Good,No,m,m,1,681
13,24,right,female,5,27,好人,C.bmp,Normal,No,m,m,1,825
13,24,right,female,5,28,好人,S.bmp,Bad,No,m,m,1,825
13,24,right,female,5,29,坏人,T.bmp,Good,No,m,n,0,937
13,24,right,female,5,30,坏人,C.bmp,Normal,No,m,m,1,809
13,24,right,female,5,31,坏人,S.bmp,Bad,Yes,n,n,1,842
13,24,right,female,5,32,好人,T.bmp,Good,Yes,n,n,1,746
13,24,right,female,5,33,常人,C.bmp,Normal,Yes,n,n,1,714
13,24,right,female,5,34,常人,C.bmp,Normal,Yes,n,m,0,834
13,24,right,female,5,35,常人,S.bmp,Bad,No,m,n,0,714
13,24,right,female,5,36,坏人,S.bmp,Bad,Yes,n,n,1,714
13,24,right,female,5,37,坏人,C.bmp,Normal,No,m,n,0,930
13,24,right,female,5,38,好人,S.bmp,Bad,No,m,m,1,667
13,24,right,female,5,39,坏人,T.bmp,Good,No,m,m,1,907
13,24,right,female,5,40,好人,T.bmp,Good,Yes,n,n,1,1019
13,24,right,female,5,41,常人,C.bmp,Normal,Yes,n,n,1,922
13,24,right,female,5,42,好人,T.bmp,Good,Yes,n,n,1,994
13,24,right,female,5,43,坏人,S.bmp,Bad,Yes,n,n,1,898
13,24,right,female,5,44,坏人,S.bmp,Bad,Yes,n,n,1,811
13,24,right,female,5,45,好人,C.bmp,Normal,No,m,m,1,867
13,24,right,female,5,46,常人,S.bmp,Bad,No,m,m,1,987
13,24,right,female,5,47,常人,T.bmp,Good,No,m,m,1,1019
13,24,right,female,5,48,常人,C.bmp,Normal,Yes,n,n,1,915
13,24,right,female,5,49,常人,S.bmp,Bad,No,m,m,1,1011
13,24,right,female,5,50,坏人,S.bmp,Bad,Yes,n,n,1,995
13,24,right,female,5,51,常人,T.bmp,Good,No,m,m,1,940
13,24,right,female,5,52,好人,T.bmp,Good,Yes,n,n,1,908
13,24,right,female,5,53,常人,C.bmp,Normal,Yes,n,n,1,1004
13,24,right,female,5,54,常人,C.bmp,Normal,Yes,n,n,1,1052
13,24,right,female,5,55,好人,C.bmp,Normal,No,m,m,1,916
13,24,right,female,5,56,坏人,S.bmp,Bad,Yes,n,m,0,844
13,24,right,female,5,57,坏人,C.bmp,Normal,No,m,m,1,877
13,24,right,female,5,58,坏人,T.bmp,Good,No,m,m,1,1029
13,24,right,female,5,59,好人,S.bmp,Bad,No,m,m,1,973
13,24,right,female,5,60,好人,T.bmp,Good,Yes,n,n,1,853
13,24,right,female,6,1,好人,C.bmp,Normal,No,m,m,1,824
13,24,right,female,6,2,常人,T.bmp,Good,No,m,n,0,711
13,24,right,female,6,3,好人,S.bmp,Bad,No,m,m,1,823
13,24,right,female,6,4,常人,C.bmp,Normal,Yes,n,n,1,840
