Subject,Age,Handedness,Sex,BlockList.Sample,SubTrial,Label,Target,Shape,morality,self,YesNoResp,Target.RESP,Target.CRESP,Target.ACC,Target.RT
1,19,right,male,,1,自己,SqrG.bmp,Other,Good,self,No,,m,0,0
1,19,right,male,,2,他人,CirN.bmp,Self,Normal,other,No,,m,0,0
1,19,right,male,,3,他人,SqrG.bmp,Other,Good,other,Yes,,n,0,0
1,19,right,male,,4,自己,SqrB.bmp,Other,Bad,self,No,,m,0,0
1,19,right,male,,5,他人,SqrB.bmp,Other,Bad,other,Yes,,n,0,0
1,19,right,male,,6,自己,CirN.bmp,Self,Normal,self,Yes,,n,0,0
1,19,right,male,,7,他人,CirG.bmp,Self,Good,other,No,,m,0,0
1,19,right,male,,8,自己,CirG.bmp,Self,Good,self,Yes,,n,0,0
1,19,right,male,,9,自己,SqrN.bmp,Other,Normal,self,No,,m,0,0
1,19,right,male,,10,他人,CirB.bmp,Self,Bad,other,No,,m,0,0
1,19,right,male,,11,自己,CirB.bmp,Self,Bad,self,Yes,,n,0,0
1,19,right,male,,12,他人,SqrN.bmp,Other,Normal,other,Yes,,n,0,0
1,19,right,male,,13,自己,SqrG.bmp,Other,Good,self,No,,m,0,0
1,19,right,male,,14,他人,CirN.bmp,Self,Normal,other,No,,m,0,0
1,19,right,male,,15,他人,SqrB.bmp,Other,Bad,other,Yes,,n,0,0
1,19,right,male,,16,自己,CirB.bmp,Self,Bad,self,Yes,,n,0,0
1,19,right,male,,17,他人,CirG.bmp,Self,Good,other,No,,m,0,0
1,19,right,male,,18,自己,SqrN.bmp,Other,Normal,self,No,,m,0,0
1,19,right,male,,19,自己,CirG.bmp,Self,Good,self,Yes,,n,0,0
1,19,right,male,,20,自己,CirN.bmp,Self,Normal,self,Yes,n,n,1,809
1,19,right,male,,21,自己,SqrB.bmp,Other,Bad,self,No,,m,0,0
1,19,right,male,,22,他人,SqrG.bmp,Other,Good,other,Yes,,n,0,0
1,19,right,male,,23,他人,CirB.bmp,Self,Bad,other,No,m,m,1,796
1,19,right,male,,24,他人,SqrN.bmp,Other,Normal,other,Yes,,n,0,0
1,19,right,male,,25,自己,SqrB.bmp,Other,Bad,self,No,,m,0,0
1,19,right,male,,26,自己,CirB.bmp,Self,Bad,self,Yes,n,n,1,917
1,19,right,male,,27,他人,SqrG.bmp,Other,Good,other,Yes,m,n,0,747
1,19,right,male,,28,他人,CirB.bmp,Self,Bad,other,No,m,m,1,1009
1,19,right,male,,29,他人,SqrB.bmp,Other,Bad,other,Yes,m,n,0,1029
1,19,right,male,,30,自己,SqrG.bmp,Other,Good,self,No,n,m,0,845
1,19,right,male,,31,自己,CirG.bmp,Self,Good,self,Yes,n,n,1,795
1,19,right,male,,32,他人,SqrN.bmp,Other,Normal,other,Yes,m,n,0,867
1,19,right,male,,33,自己,SqrN.bmp,Other,Normal,self,No,,m,0,0
1,19,right,male,,34,他人,CirG.bmp,Self,Good,other,No,m,m,1,972
1,19,right,male,,35,他人,CirN.bmp,Self,Normal,other,No,m,m,1,741
1,19,right,male,,36,自己,CirN.bmp,Self,Normal,self,Yes,n,n,1,885
1,19,right,male,,37,自己,CirB.bmp,Self,Bad,self,Yes,m,n,0,1027
1,19,right,male,,38,自己,CirG.bmp,Self,Good,self,Yes,n,n,1,699
1,19,right,male,,39,自己,SqrN.bmp,Other,Normal,self,No,m,m,1,847
1,19,right,male,,40,自己,CirN.bmp,Self,Normal,self,Yes,n,n,1,841
1,19,right,male,,41,他人,CirB.bmp,Self,Bad,other,No,m,m,1,629
1,19,right,male,,42,他人,CirG.bmp,Self,Good,other,No,m,m,1,741
1,19,right,male,,43,自己,SqrB.bmp,Other,Bad,self,No,m,m,1,825
1,19,right,male,,44,他人,SqrB.bmp,Other,Bad,other,Yes,n,n,1,859
1,19,right,male,,45,他人,SqrN.bmp,Other,Normal,other,Yes,n,n,1,785
1,19,right,male,,46,他人,CirN.bmp,Self,Normal,other,No,m,m,1,768
1,19,right,male,,47,自己,SqrG.bmp,Other,Good,self,No,n,m,0,774
1,19,right,male,,48,他人,SqrG.bmp,Other,Good,other,Yes,n,n,1,824
1,19,right,male,,49,自己,CirN.bmp,Self,Normal,self,Yes,n,n,1,761
1,19,right,male,,50,他人,CirG.bmp,Self,Good,other,No,m,m,1,1071
1,19,right,male,,51,自己,SqrG.bmp,Other,Good,self,No,m,m,1,870
1,19,right,male,,52,自己,CirB.bmp,Self,Bad,self,Yes,n,n,1,924
1,19,right,male,,53,自己,SqrB.bmp,Other,Bad,self,No,n,m,0,620
1,19,right,male,,54,自己,SqrN.bmp,Other,Normal,self,No,m,m,1,882
1,19,right,male,,55,他人,SqrN.bmp,Other,Normal,other,Yes,n,n,1,956
1,19,right,male,,56,他人,SqrG.bmp,Other,Good,other,Yes,,n,0,0
1,19,right,male,,57,他人,CirB.bmp,Self,Bad,other,No,m,m,1,876
1,19,right,male,,58,他人,CirN.bmp,Self,Normal,other,No,m,m,1,1032
1,19,right,male,,59,他人,SqrB.bmp,Other,Bad,other,Yes,m,n,0,937
1,19,right,male,,60,自己,CirG.bmp,Self,Good,self,Yes,n,n,1,979
1,19,right,male,,61,自己,CirG.bmp,Self,Good,self,Yes,n,n,1,737
1,19,right,male,,62,他人,CirB.bmp,Self,Bad,other,No,m,m,1,769
1,19,right,male,,63,他人,SqrG.bmp,Other,Good,other,Yes,n,n,1,1099
1,19,right,male,,64,他人,SqrN.bmp,Other,Normal,other,Yes,n,n,1,658
1,19,right,male,,65,自己,SqrG.bmp,Other,Good,self,No,m,m,1,930
1,19,right,male,,66,他人,CirN.bmp,Self,Normal,other,No,m,m,1,1088
1,19,right,male,,67,他人,CirG.bmp,Self,Good,other,No,,m,0,0
1,19,right,male,,68,自己,SqrB.bmp,Other,Bad,self,No,m,m,1,872
1,19,right,male,,69,他人,SqrB.bmp,Other,Bad,other,Yes,n,n,1,836
1,19,right,male,,70,自己,CirN.bmp,Self,Normal,self,Yes,m,n,0,882
1,19,right,male,,71,自己,SqrN.bmp,Other,Normal,self,No,m,m,1,1038
1,19,right,male,,72,自己,CirB.bmp,Self,Bad,self,Yes,,n,0,0
1,19,right,male,1,1,他人,CirB.bmp,Self,Bad,other,No,,m,0,0
1,19,right,male,1,2,自己,SqrG.bmp,Other,Good,self,No,m,m,1,827
1,19,right,male,1,3,自己,SqrB.bmp,Other,Bad,self,No,m,m,1,637
1,19,right,male,1,4,自己,SqrN.bmp,Other,Normal,self,No,m,m,1,745
1,19,right,male,1,5,自己,CirN.bmp,Self,Normal,self,Yes,n,n,1,638
1,19,right,male,1,6,他人,SqrB.bmp,Other,Bad,other,Yes,n,n,1,769
1,19,right,male,1,7,自己,CirG.bmp,Self,Good,self,Yes,n,n,1,681
1,19,right,male,1,8,他人,CirG.bmp,Self,Good,other,No,m,m,1,741
1,19,right,male,1,9,他人,CirN.bmp,Self,Normal,other,No,m,m,1,901
1,19,right,male,1,10,他人,SqrG.bmp,Other,Good,other,Yes,n,n,1,765
1,19,right,male,1,11,他人,SqrN.bmp,Other,Normal,other,Yes,m,n,0,1071
1,19,right,male,1,12,自己,CirB.bmp,Self,Bad,self,Yes,n,n,1,569
1,19,right,male,1,13,自己,SqrG.bmp,Other,Good,self,No,m,m,1,877
1,19,right,male,1,14,自己,SqrN.bmp,Other,Normal,self,No,m,m,1,929
1,19,right,male,1,15,他人,CirB.bmp,Self,Bad,other,No,n,m,0,941
1,19,right,male,1,16,自己,CirG.bmp,Self,Good,self,Yes,n,n,1,795
1,19,right,male,1,17,自己,CirN.bmp,Self,Normal,self,Yes,n,n,1,785
1,19,right,male,1,18,他人,SqrG.bmp,Other,Good,other,Yes,n,n,1,988
1,19,right,male,1,19,自己,SqrB.bmp,Other,Bad,self,No,m,m,1,679
1,19,right,male,1,20,他人,SqrN.bmp,Other,Normal,other,Yes,,n,0,0
1,19,right,male,1,21,他人,CirN.bmp,Self,Normal,other,No,m,m,1,695
1,19,right,male,1,22,他人,SqrB.bmp,Other,Bad,other,Yes,n,n,1,677
1,19,right,male,1,23,自己,CirB.bmp,Self,Bad,self,Yes,n,n,1,539
1,19,right,male,1,24,他人,CirG.bmp,Self,Good,other,No,m,m,1,715
1,19,right,male,1,25,自己,CirG.bmp,Self,Good,self,Yes,n,n,1,771
1,19,right,male,1,26,他人,SqrB.bmp,Other,Bad,other,Yes,m,n,0,623
1,19,right,male,1,27,他人,CirG.bmp,Self,Good,other,No,m,m,1,917
1,19,right,male,1,28,自己,CirB.bmp,Self,Bad,self,Yes,n,n,1,631
1,19,right,male,1,29,他人,CirN.bmp,Self,Normal,other,No,m,m,1,825
1,19,right,male,1,30,他人,CirB.bmp,Self,Bad,other,No,,m,0,0
1,19,right,male,1,31,他人,SqrN.bmp,Other,Normal,other,Yes,n,n,1,574
1,19,right,male,1,32,自己,CirN.bmp,Self,Normal,self,Yes,m,n,0,680
1,19,right,male,1,33,自己,SqrN.bmp,Other,Normal,self,No,m,m,1,762
1,19,right,male,1,34,自己,SqrB.bmp,Other,Bad,self,No,m,m,1,795
1,19,right,male,1,35,自己,SqrG.bmp,Other,Good,self,No,m,m,1,715
1,19,right,male,1,36,他人,SqrG.bmp,Other,Good,other,Yes,n,n,1,1073
1,19,right,male,1,37,自己,SqrG.bmp,Other,Good,self,No,m,m,1,723
1,19,right,male,1,38,自己,SqrN.bmp,Other,Normal,self,No,m,m,1,629
1,19,right,male,1,39,他人,CirG.bmp,Self,Good,other,No,m,m,1,709
1,19,right,male,1,40,自己,SqrB.bmp,Other,Bad,self,No,m,m,1,663
1,19,right,male,1,41,他人,SqrN.bmp,Other,Normal,other,Yes,n,n,1,761
1,19,right,male,1,42,他人,CirN.bmp,Self,Normal,other,No,m,m,1,659
1,19,right,male,1,43,他人,SqrB.bmp,Other,Bad,other,Yes,n,n,1,868
1,19,right,male,1,44,他人,SqrG.bmp,Other,Good,other,Yes,n,n,1,1002
1,19,right,male,1,45,自己,CirG.bmp,Self,Good,self,Yes,n,n,1,568
1,19,right,male,1,46,自己,CirB.bmp,Self,Bad,self,Yes,n,n,1,642
1,19,right,male,1,47,他人,CirB.bmp,Self,Bad,other,No,m,m,1,598
1,19,right,male,1,48,自己,CirN.bmp,Self,Normal,self,Yes,m,n,0,567
1,19,right,male,1,49,他人,SqrB.bmp,Other,Bad,other,Yes,n,n,1,553
1,19,right,male,1,50,他人,SqrN.bmp,Other,Normal,other,Yes,,n,0,0
1,19,right,male,1,51,他人,CirG.bmp,Self,Good,other,No,m,m,1,647
1,19,right,male,1,52,自己,CirG.bmp,Self,Good,self,Yes,n,n,1,595
1,19,right,male,1,53,自己,CirN.bmp,Self,Normal,self,Yes,n,n,1,641
1,19,right,male,1,54,他人,CirB.bmp,Self,Bad,other,No,n,m,0,615
1,19,right,male,1,55,自己,SqrN.bmp,Other,Normal,self,No,m,m,1,810
1,19,right,male,1,56,自己,SqrB.bmp,Other,Bad,self,No,m,m,1,693
1,19,right,male,1,57,自己,CirB.bmp,Self,Bad,self,Yes,m,n,0,684
1,19,right,male,1,58,他人,SqrG.bmp,Other,Good,other,Yes,n,n,1,860
1,19,right,male,1,59,他人,CirN.bmp,Self,Normal,other,No,m,m,1,710
1,19,right,male,1,60,自己,SqrG.bmp,Other,Good,self,No,m,m,1,710
1,19,right,male,2,1,他人,SqrN.bmp,Other,Normal,other,Yes,n,n,1,946
1,19,right,male,2,2,自己,SqrN.bmp,Other,Normal,self,No,m,m,1,568
1,19,right,male,2,3,自己,CirN.bmp,Self,Normal,self,Yes,n,n,1,700
1,19,right,male,2,4,他人,SqrG.bmp,Other,Good,other,Yes,n,n,1,840
1,19,right,male,2,5,他人,CirN.bmp,Self,Normal,other,No,m,m,1,768
1,19,right,male,2,6,自己,CirG.bmp,Self,Good,self,Yes,n,n,1,622
1,19,right,male,2,7,自己,SqrG.bmp,Other,Good,self,No,m,m,1,760
1,19,right,male,2,8,他人,CirB.bmp,Self,Bad,other,No,,m,0,0
1,19,right,male,2,9,他人,SqrB.bmp,Other,Bad,other,Yes,n,n,1,802
1,19,right,male,2,10,自己,CirB.bmp,Self,Bad,self,Yes,n,n,1,681
1,19,right,male,2,11,他人,CirG.bmp,Self,Good,other,No,m,m,1,1035
1,19,right,male,2,12,自己,SqrB.bmp,Other,Bad,self,No,m,m,1,682
1,19,right,male,2,13,他人,SqrN.bmp,Other,Normal,other,Yes,,n,0,0
1,19,right,male,2,14,他人,CirG.bmp,Self,Good,other,No,n,m,0,638
1,19,right,male,2,15,自己,CirB.bmp,Self,Bad,self,Yes,n,n,1,564
1,19,right,male,2,16,自己,CirN.bmp,Self,Normal,self,Yes,n,n,1,540
1,19,right,male,2,17,自己,CirG.bmp,Self,Good,self,Yes,n,n,1,560
1,19,right,male,2,18,他人,SqrG.bmp,Other,Good,other,Yes,m,n,0,600
1,19,right,male,2,19,自己,SqrN.bmp,Other,Normal,self,No,m,m,1,588
1,19,right,male,2,20,自己,SqrG.bmp,Other,Good,self,No,m,m,1,620
1,19,right,male,2,21,自己,SqrB.bmp,Other,Bad,self,No,m,m,1,760
1,19,right,male,2,22,他人,SqrB.bmp,Other,Bad,other,Yes,n,n,1,554
1,19,right,male,2,23,他人,CirN.bmp,Self,Normal,other,No,m,m,1,628
1,19,right,male,2,24,他人,CirB.bmp,Self,Bad,other,No,m,m,1,527
1,19,right,male,2,25,他人,CirG.bmp,Self,Good,other,No,m,m,1,694
1,19,right,male,2,26,他人,SqrG.bmp,Other,Good,other,Yes,n,n,1,767
1,19,right,male,2,27,自己,CirG.bmp,Self,Good,self,Yes,n,n,1,586
1,19,right,male,2,28,自己,CirN.bmp,Self,Normal,self,Yes,n,n,1,624
1,19,right,male,2,29,自己,CirB.bmp,Self,Bad,self,Yes,n,n,1,480
1,19,right,male,2,30,自己,SqrN.bmp,Other,Normal,self,No,m,m,1,614
1,19,right,male,2,31,自己,SqrB.bmp,Other,Bad,self,No,m,m,1,668
1,19,right,male,2,32,他人,CirN.bmp,Self,Normal,other,No,m,m,1,832
1,19,right,male,2,33,他人,SqrB.bmp,Other,Bad,other,Yes,n,n,1,806
1,19,right,male,2,34,他人,SqrN.bmp,Other,Normal,other,Yes,n,n,1,932
1,19,right,male,2,35,他人,CirB.bmp,Self,Bad,other,No,m,m,1,642
1,19,right,male,2,36,自己,SqrG.bmp,Other,Good,self,No,n,m,0,546
1,19,right,male,2,37,他人,SqrN.bmp,Other,Normal,other,Yes,n,n,1,713
1,19,right,male,2,38,他人,CirN.bmp,Self,Normal,other,No,m,m,1,587
1,19,right,male,2,39,自己,CirG.bmp,Self,Good,self,Yes,n,n,1,740
1,19,right,male,2,40,他人,SqrB.bmp,Other,Bad,other,Yes,n,n,1,668
1,19,right,male,2,41,自己,SqrN.bmp,Other,Normal,self,No,m,m,1,706
1,19,right,male,2,42,自己,CirN.bmp,Self,Normal,self,Yes,n,n,1,932
1,19,right,male,2,43,他人,SqrG.bmp,Other,Good,other,Yes,n,n,1,642
1,19,right,male,2,44,自己,SqrB.bmp,Other,Bad,self,No,m,m,1,666
1,19,right,male,2,45,自己,CirB.bmp,Self,Bad,self,Yes,n,n,1,672
1,19,right,male,2,46,他人,CirG.bmp,Self,Good,other,No,m,m,1,544
1,19,right,male,2,47,自己,SqrG.bmp,Other,Good,self,No,m,m,1,694
1,19,right,male,2,48,他人,CirB.bmp,Self,Bad,other,No,m,m,1,830
1,19,right,male,2,49,他人,CirB.bmp,Self,Bad,other,No,m,m,1,607
1,19,right,male,2,50,自己,CirG.bmp,Self,Good,self,Yes,n,n,1,519
1,19,right,male,2,51,他人,CirN.bmp,Self,Normal,other,No,n,m,0,759
1,19,right,male,2,52,自己,SqrG.bmp,Other,Good,self,No,m,m,1,699
1,19,right,male,2,53,他人,SqrB.bmp,Other,Bad,other,Yes,n,n,1,693
1,19,right,male,2,54,他人,SqrG.bmp,Other,Good,other,Yes,n,n,1,576
1,19,right,male,2,55,自己,SqrB.bmp,Other,Bad,self,No,m,m,1,1014
1,19,right,male,2,56,自己,CirN.bmp,Self,Normal,self,Yes,n,n,1,716
1,19,right,male,2,57,他人,CirG.bmp,Self,Good,other,No,m,m,1,596
1,19,right,male,2,58,自己,CirB.bmp,Self,Bad,self,Yes,n,n,1,786
1,19,right,male,2,59,自己,SqrN.bmp,Other,Normal,self,No,m,m,1,718
1,19,right,male,2,60,他人,SqrN.bmp,Other,Normal,other,Yes,m,n,0,1070
1,19,right,male,3,1,自己,CirN.bmp,Self,Normal,self,Yes,n,n,1,651
1,19,right,male,3,2,他人,CirB.bmp,Self,Bad,other,No,m,m,1,554
1,19,right,male,3,3,自己,SqrG.bmp,Other,Good,self,No,m,m,1,626
1,19,right,male,3,4,他人,CirN.bmp,Self,Normal,other,No,m,m,1,826
1,19,right,male,3,5,他人,CirG.bmp,Self,Good,other,No,m,m,1,752
1,19,right,male,3,6,自己,CirB.bmp,Self,Bad,self,Yes,n,n,1,505
1,19,right,male,3,7,自己,SqrN.bmp,Other,Normal,self,No,m,m,1,623
1,19,right,male,3,8,他人,SqrN.bmp,Other,Normal,other,Yes,n,n,1,855
1,19,right,male,3,9,自己,CirG.bmp,Self,Good,self,Yes,n,n,1,735
1,19,right,male,3,10,自己,SqrB.bmp,Other,Bad,self,No,m,m,1,641
1,19,right,male,3,11,他人,SqrG.bmp,Other,Good,other,Yes,n,n,1,737
1,19,right,male,3,12,他人,SqrB.bmp,Other,Bad,other,Yes,n,n,1,635
1,19,right,male,3,13,自己,CirN.bmp,Self,Normal,self,Yes,n,n,1,543
1,19,right,male,3,14,自己,SqrB.bmp,Other,Bad,self,No,m,m,1,707
1,19,right,male,3,15,他人,CirN.bmp,Self,Normal,other,No,m,m,1,856
1,19,right,male,3,16,自己,SqrG.bmp,Other,Good,self,No,n,m,0,568
1,19,right,male,3,17,他人,SqrN.bmp,Other,Normal,other,Yes,m,n,0,604
1,19,right,male,3,18,自己,CirG.bmp,Self,Good,self,Yes,n,n,1,570
1,19,right,male,3,19,自己,SqrN.bmp,Other,Normal,self,No,m,m,1,648
1,19,right,male,3,20,他人,CirG.bmp,Self,Good,other,No,m,m,1,855
1,19,right,male,3,21,自己,CirB.bmp,Self,Bad,self,Yes,n,n,1,507
1,19,right,male,3,22,他人,SqrG.bmp,Other,Good,other,Yes,n,n,1,621
1,19,right,male,3,23,他人,CirB.bmp,Self,Bad,other,No,m,m,1,807
1,19,right,male,3,24,他人,SqrB.bmp,Other,Bad,other,Yes,n,n,1,663
1,19,right,male,3,25,他人,CirN.bmp,Self,Normal,other,No,m,m,1,723
1,19,right,male,3,26,他人,CirG.bmp,Self,Good,other,No,m,m,1,711
1,19,right,male,3,27,自己,SqrN.bmp,Other,Normal,self,No,m,m,1,859
1,19,right,male,3,28,自己,SqrB.bmp,Other,Bad,self,No,,m,0,0
1,19,right,male,3,29,他人,CirB.bmp,Self,Bad,other,No,m,m,1,749
1,19,right,male,3,30,他人,SqrG.bmp,Other,Good,other,Yes,n,n,1,682
1,19,right,male,3,31,自己,CirG.bmp,Self,Good,self,Yes,n,n,1,594
1,19,right,male,3,32,自己,SqrG.bmp,Other,Good,self,No,m,m,1,653
1,19,right,male,3,33,自己,CirB.bmp,Self,Bad,self,Yes,n,n,1,645
1,19,right,male,3,34,他人,SqrB.bmp,Other,Bad,other,Yes,n,n,1,673
1,19,right,male,3,35,自己,CirN.bmp,Self,Normal,self,Yes,n,n,1,779
1,19,right,male,3,36,他人,SqrN.bmp,Other,Normal,other,Yes,n,n,1,931
1,19,right,male,3,37,自己,CirB.bmp,Self,Bad,self,Yes,n,n,1,795
1,19,right,male,3,38,他人,CirG.bmp,Self,Good,other,No,m,m,1,667
1,19,right,male,3,39,他人,SqrN.bmp,Other,Normal,other,Yes,n,n,1,573
1,19,right,male,3,40,自己,CirN.bmp,Self,Normal,self,Yes,n,n,1,605
1,19,right,male,3,41,自己,CirG.bmp,Self,Good,self,Yes,n,n,1,645
1,19,right,male,3,42,自己,SqrN.bmp,Other,Normal,self,No,m,m,1,663
1,19,right,male,3,43,他人,SqrG.bmp,Other,Good,other,Yes,n,n,1,825
1,19,right,male,3,44,自己,SqrG.bmp,Other,Good,self,No,m,m,1,941
1,19,right,male,3,45,自己,SqrB.bmp,Other,Bad,self,No,m,m,1,751
1,19,right,male,3,46,他人,CirN.bmp,Self,Normal,other,No,m,m,1,907
1,19,right,male,3,47,他人,CirB.bmp,Self,Bad,other,No,m,m,1,771
1,19,right,male,3,48,他人,SqrB.bmp,Other,Bad,other,Yes,n,n,1,981
1,19,right,male,3,49,他人,SqrG.bmp,Other,Good,other,Yes,n,n,1,657
1,19,right,male,3,50,自己,CirN.bmp,Self,Normal,self,Yes,n,n,1,619
1,19,right,male,3,51,他人,SqrB.bmp,Other,Bad,other,Yes,n,n,1,561
1,19,right,male,3,52,自己,SqrN.bmp,Other,Normal,self,No,m,m,1,657
1,19,right,male,3,53,自己,SqrB.bmp,Other,Bad,self,No,m,m,1,683
1,19,right,male,3,54,他人,CirB.bmp,Self,Bad,other,No,m,m,1,699
1,19,right,male,3,55,自己,SqrG.bmp,Other,Good,self,No,m,m,1,763
1,19,right,male,3,56,自己,CirG.bmp,Self,Good,self,Yes,n,n,1,699
1,19,right,male,3,57,他人,SqrN.bmp,Other,Normal,other,Yes,n,n,1,598
1,19,right,male,3,58,他人,CirN.bmp,Self,Normal,other,No,m,m,1,612
1,19,right,male,3,59,他人,CirG.bmp,Self,Good,other,No,m,m,1,542
1,19,right,male,3,60,自己,CirB.bmp,Self,Bad,self,Yes,n,n,1,615
1,19,right,male,4,1,他人,CirG.bmp,Self,Good,other,No,m,m,1,821
1,19,right,male,4,2,他人,SqrG.bmp,Other,Good,other,Yes,n,n,1,695
1,19,right,male,4,3,自己,SqrG.bmp,Other,Good,self,No,m,m,1,667
1,19,right,male,4,4,自己,CirG.bmp,Self,Good,self,Yes,n,n,1,592
1,19,right,male,4,5,他人,SqrB.bmp,Other,Bad,other,Yes,n,n,1,768
1,19,right,male,4,6,自己,CirN.bmp,Self,Normal,self,Yes,n,n,1,564
1,19,right,male,4,7,自己,CirB.bmp,Self,Bad,self,Yes,n,n,1,494
1,19,right,male,4,8,他人,CirB.bmp,Self,Bad,other,No,m,m,1,600
1,19,right,male,4,9,他人,CirN.bmp,Self,Normal,other,No,m,m,1,811
1,19,right,male,4,10,他人,SqrN.bmp,Other,Normal,other,Yes,n,n,1,719
1,19,right,male,4,11,自己,SqrN.bmp,Other,Normal,self,No,m,m,1,593
1,19,right,male,4,12,自己,SqrB.bmp,Other,Bad,self,No,m,m,1,685
1,19,right,male,4,13,他人,SqrB.bmp,Other,Bad,other,Yes,n,n,1,709
1,19,right,male,4,14,自己,SqrG.bmp,Other,Good,self,No,m,m,1,623
1,19,right,male,4,15,他人,CirB.bmp,Self,Bad,other,No,m,m,1,569
1,19,right,male,4,16,他人,SqrG.bmp,Other,Good,other,Yes,n,n,1,617
1,19,right,male,4,17,他人,SqrN.bmp,Other,Normal,other,Yes,n,n,1,814
1,19,right,male,4,18,自己,CirG.bmp,Self,Good,self,Yes,n,n,1,534
1,19,right,male,4,19,自己,SqrN.bmp,Other,Normal,self,No,m,m,1,718
1,19,right,male,4,20,自己,CirB.bmp,Self,Bad,self,Yes,n,n,1,534
1,19,right,male,4,21,他人,CirG.bmp,Self,Good,other,No,m,m,1,594
1,19,right,male,4,22,自己,SqrB.bmp,Other,Bad,self,No,m,m,1,980
1,19,right,male,4,23,他人,CirN.bmp,Self,Normal,other,No,m,m,1,621
1,19,right,male,4,24,自己,CirN.bmp,Self,Normal,self,Yes,n,n,1,563
1,19,right,male,4,25,他人,CirB.bmp,Self,Bad,other,No,m,m,1,615
1,19,right,male,4,26,他人,SqrG.bmp,Other,Good,other,Yes,n,n,1,955
1,19,right,male,4,27,自己,CirG.bmp,Self,Good,self,Yes,n,n,1,587
1,19,right,male,4,28,自己,CirN.bmp,Self,Normal,self,Yes,n,n,1,815
1,19,right,male,4,29,他人,CirG.bmp,Self,Good,other,No,m,m,1,556
1,19,right,male,4,30,他人,CirN.bmp,Self,Normal,other,No,m,m,1,616
1,19,right,male,4,31,他人,SqrB.bmp,Other,Bad,other,Yes,n,n,1,700
1,19,right,male,4,32,自己,SqrG.bmp,Other,Good,self,No,m,m,1,820
1,19,right,male,4,33,自己,SqrN.bmp,Other,Normal,self,No,m,m,1,778
1,19,right,male,4,34,自己,CirB.bmp,Self,Bad,self,Yes,n,n,1,622
1,19,right,male,4,35,他人,SqrN.bmp,Other,Normal,other,Yes,,n,0,0
1,19,right,male,4,36,自己,SqrB.bmp,Other,Bad,self,No,m,m,1,652
1,19,right,male,4,37,他人,SqrN.bmp,Other,Normal,other,Yes,n,n,1,920
1,19,right,male,4,38,自己,CirG.bmp,Self,Good,self,Yes,n,n,1,643
1,19,right,male,4,39,他人,SqrB.bmp,Other,Bad,other,Yes,n,n,1,843
1,19,right,male,4,40,自己,SqrB.bmp,Other,Bad,self,No,n,m,0,841
1,19,right,male,4,41,他人,CirG.bmp,Self,Good,other,No,m,m,1,875
1,19,right,male,4,42,他人,CirB.bmp,Self,Bad,other,No,n,m,0,930
1,19,right,male,4,43,自己,CirB.bmp,Self,Bad,self,Yes,n,n,1,502
1,19,right,male,4,44,他人,SqrG.bmp,Other,Good,other,Yes,n,n,1,664
1,19,right,male,4,45,他人,CirN.bmp,Self,Normal,other,No,m,m,1,950
1,19,right,male,4,46,自己,SqrN.bmp,Other,Normal,self,No,m,m,1,744
1,19,right,male,4,47,自己,SqrG.bmp,Other,Good,self,No,,m,0,0
1,19,right,male,4,48,自己,CirN.bmp,Self,Normal,self,Yes,n,n,1,716
1,19,right,male,4,49,自己,CirG.bmp,Self,Good,self,Yes,n,n,1,432
1,19,right,male,4,50,自己,SqrB.bmp,Other,Bad,self,No,m,m,1,628
1,19,right,male,4,51,自己,SqrG.bmp,Other,Good,self,No,m,m,1,830
1,19,right,male,4,52,自己,SqrN.bmp,Other,Normal,self,No,m,m,1,643
1,19,right,male,4,53,自己,CirN.bmp,Self,Normal,self,Yes,n,n,1,543
1,19,right,male,4,54,他人,SqrG.bmp,Other,Good,other,Yes,n,n,1,928
1,19,right,male,4,55,他人,CirG.bmp,Self,Good,other,No,m,m,1,716
1,19,right,male,4,56,他人,SqrN.bmp,Other,Normal,other,Yes,m,n,0,966
1,19,right,male,4,57,他人,CirN.bmp,Self,Normal,other,No,m,m,1,606
1,19,right,male,4,58,自己,CirB.bmp,Self,Bad,self,Yes,n,n,1,556
1,19,right,male,4,59,他人,SqrB.bmp,Other,Bad,other,Yes,n,n,1,712
1,19,right,male,4,60,他人,CirB.bmp,Self,Bad,other,No,m,m,1,776
1,19,right,male,5,1,他人,CirB.bmp,Self,Bad,other,No,m,m,1,694
1,19,right,male,5,2,他人,SqrB.bmp,Other,Bad,other,Yes,n,n,1,748
1,19,right,male,5,3,他人,SqrN.bmp,Other,Normal,other,Yes,n,n,1,636
1,19,right,male,5,4,他人,SqrG.bmp,Other,Good,other,Yes,n,n,1,712
1,19,right,male,5,5,自己,SqrG.bmp,Other,Good,self,No,m,m,1,674
1,19,right,male,5,6,自己,SqrN.bmp,Other,Normal,self,No,m,m,1,722
1,19,right,male,5,7,他人,CirG.bmp,Self,Good,other,No,n,m,0,740
1,19,right,male,5,8,自己,SqrB.bmp,Other,Bad,self,No,n,m,0,880
1,19,right,male,5,9,自己,CirN.bmp,Self,Normal,self,Yes,n,n,1,536
1,19,right,male,5,10,自己,CirB.bmp,Self,Bad,self,Yes,n,n,1,603
1,19,right,male,5,11,自己,CirG.bmp,Self,Good,self,Yes,n,n,1,597
1,19,right,male,5,12,他人,CirN.bmp,Self,Normal,other,No,m,m,1,808
1,19,right,male,5,13,自己,SqrB.bmp,Other,Bad,self,No,m,m,1,658
1,19,right,male,5,14,自己,CirN.bmp,Self,Normal,self,Yes,n,n,1,672
1,19,right,male,5,15,自己,CirB.bmp,Self,Bad,self,Yes,n,n,1,574
1,19,right,male,5,16,他人,CirN.bmp,Self,Normal,other,No,m,m,1,536
1,19,right,male,5,17,他人,SqrN.bmp,Other,Normal,other,Yes,n,n,1,968
1,19,right,male,5,18,自己,SqrG.bmp,Other,Good,self,No,m,m,1,606
1,19,right,male,5,19,自己,SqrN.bmp,Other,Normal,self,No,m,m,1,564
1,19,right,male,5,20,自己,CirG.bmp,Self,Good,self,Yes,n,n,1,488
1,19,right,male,5,21,他人,CirB.bmp,Self,Bad,other,No,m,m,1,606
1,19,right,male,5,22,他人,CirG.bmp,Self,Good,other,No,m,m,1,574
1,19,right,male,5,23,他人,SqrB.bmp,Other,Bad,other,Yes,n,n,1,703
1,19,right,male,5,24,他人,SqrG.bmp,Other,Good,other,Yes,n,n,1,713
1,19,right,male,5,25,他人,SqrG.bmp,Other,Good,other,Yes,n,n,1,511
1,19,right,male,5,26,他人,CirB.bmp,Self,Bad,other,No,m,m,1,563
1,19,right,male,5,27,自己,SqrG.bmp,Other,Good,self,No,m,m,1,737
1,19,right,male,5,28,他人,CirG.bmp,Self,Good,other,No,m,m,1,976
1,19,right,male,5,29,自己,SqrB.bmp,Other,Bad,self,No,m,m,1,792
1,19,right,male,5,30,自己,SqrN.bmp,Other,Normal,self,No,m,m,1,738
1,19,right,male,5,31,自己,CirB.bmp,Self,Bad,self,Yes,n,n,1,740
1,19,right,male,5,32,自己,CirG.bmp,Self,Good,self,Yes,n,n,1,486
1,19,right,male,5,33,自己,CirN.bmp,Self,Normal,self,Yes,n,n,1,426
1,19,right,male,5,34,他人,CirN.bmp,Self,Normal,other,No,m,m,1,566
1,19,right,male,5,35,他人,SqrN.bmp,Other,Normal,other,Yes,n,n,1,808
1,19,right,male,5,36,他人,SqrB.bmp,Other,Bad,other,Yes,n,n,1,549
1,19,right,male,5,37,他人,CirB.bmp,Self,Bad,other,No,m,m,1,599
1,19,right,male,5,38,自己,SqrB.bmp,Other,Bad,self,No,m,m,1,693
1,19,right,male,5,39,他人,CirG.bmp,Self,Good,other,No,m,m,1,607
1,19,right,male,5,40,他人,SqrG.bmp,Other,Good,other,Yes,n,n,1,617
1,19,right,male,5,41,自己,CirB.bmp,Self,Bad,self,Yes,n,n,1,731
1,19,right,male,5,42,自己,CirG.bmp,Self,Good,self,Yes,n,n,1,454
1,19,right,male,5,43,自己,SqrG.bmp,Other,Good,self,No,m,m,1,682
1,19,right,male,5,44,自己,CirN.bmp,Self,Normal,self,Yes,m,n,0,644
1,19,right,male,5,45,自己,SqrN.bmp,Other,Normal,self,No,m,m,1,812
1,19,right,male,5,46,他人,CirN.bmp,Self,Normal,other,No,m,m,1,564
1,19,right,male,5,47,他人,SqrB.bmp,Other,Bad,other,Yes,n,n,1,682
1,19,right,male,5,48,他人,SqrN.bmp,Other,Normal,other,Yes,m,n,0,750
1,19,right,male,5,49,他人,CirN.bmp,Self,Normal,other,No,m,m,1,603
1,19,right,male,5,50,自己,CirB.bmp,Self,Bad,self,Yes,n,n,1,545
1,19,right,male,5,51,自己,CirN.bmp,Self,Normal,self,Yes,n,n,1,419
1,19,right,male,5,52,自己,SqrB.bmp,Other,Bad,self,No,m,m,1,687
1,19,right,male,5,53,自己,SqrN.bmp,Other,Normal,self,No,m,m,1,721
1,19,right,male,5,54,他人,SqrB.bmp,Other,Bad,other,Yes,n,n,1,771
1,19,right,male,5,55,自己,CirG.bmp,Self,Good,self,Yes,n,n,1,753
1,19,right,male,5,56,他人,SqrG.bmp,Other,Good,other,Yes,,n,0,0
1,19,right,male,5,57,他人,CirB.bmp,Self,Bad,other,No,m,m,1,626
1,19,right,male,5,58,自己,SqrG.bmp,Other,Good,self,No,m,m,1,774
1,19,right,male,5,59,他人,CirG.bmp,Self,Good,other,No,m,m,1,581
1,19,right,male,5,60,他人,SqrN.bmp,Other,Normal,other,Yes,n,n,1,620
1,19,right,male,6,1,自己,CirN.bmp,Self,Normal,self,Yes,n,n,1,521
1,19,right,male,6,2,他人,CirB.bmp,Self,Bad,other,No,m,m,1,528
1,19,right,male,6,3,他人,SqrB.bmp,Other,Bad,other,Yes,n,n,1,568
1,19,right,male,6,4,他人,SqrG.bmp,Other,Good,other,Yes,n,n,1,504
1,19,right,male,6,5,他人,CirN.bmp,Self,Normal,other,No,m,m,1,555
1,19,right,male,6,6,自己,SqrG.bmp,Other,Good,self,No,m,m,1,669
1,19,right,male,6,7,自己,CirG.bmp,Self,Good,self,Yes,n,n,1,445
1,19,right,male,6,8,他人,CirG.bmp,Self,Good,other,No,m,m,1,585
1,19,right,male,6,9,自己,SqrB.bmp,Other,Bad,self,No,m,m,1,719
1,19,right,male,6,10,自己,SqrN.bmp,Other,Normal,self,No,m,m,1,689
1,19,right,male,6,11,自己,CirB.bmp,Self,Bad,self,Yes,n,n,1,601
1,19,right,male,6,12,他人,SqrN.bmp,Other,Normal,other,Yes,m,n,0,565
1,19,right,male,6,13,自己,CirN.bmp,Self,Normal,self,Yes,n,n,1,525
1,19,right,male,6,14,自己,SqrN.bmp,Other,Normal,self,No,m,m,1,845
1,19,right,male,6,15,他人,CirG.bmp,Self,Good,other,No,m,m,1,627
1,19,right,male,6,16,自己,CirB.bmp,Self,Bad,self,Yes,n,n,1,663
1,19,right,male,6,17,他人,SqrB.bmp,Other,Bad,other,Yes,n,n,1,695
1,19,right,male,6,18,他人,CirB.bmp,Self,Bad,other,No,m,m,1,663
1,19,right,male,6,19,自己,CirG.bmp,Self,Good,self,Yes,n,n,1,509
1,19,right,male,6,20,他人,CirN.bmp,Self,Normal,other,No,m,m,1,571
1,19,right,male,6,21,他人,SqrG.bmp,Other,Good,other,Yes,m,n,0,793
1,19,right,male,6,22,自己,SqrB.bmp,Other,Bad,self,No,m,m,1,813
1,19,right,male,6,23,自己,SqrG.bmp,Other,Good,self,No,m,m,1,629
1,19,right,male,6,24,他人,SqrN.bmp,Other,Normal,other,Yes,n,n,1,569
1,19,right,male,6,25,自己,CirN.bmp,Self,Normal,self,Yes,n,n,1,523
1,19,right,male,6,26,他人,SqrN.bmp,Other,Normal,other,Yes,n,n,1,871
1,19,right,male,6,27,自己,SqrB.bmp,Other,Bad,self,No,m,m,1,863
1,19,right,male,6,28,他人,CirN.bmp,Self,Normal,other,No,m,m,1,627
1,19,right,male,6,29,自己,CirG.bmp,Self,Good,self,Yes,n,n,1,679
1,19,right,male,6,30,他人,SqrB.bmp,Other,Bad,other,Yes,n,n,1,772
1,19,right,male,6,31,他人,CirB.bmp,Self,Bad,other,No,m,m,1,592
1,19,right,male,6,32,他人,SqrG.bmp,Other,Good,other,Yes,n,n,1,767
1,19,right,male,6,33,自己,SqrN.bmp,Other,Normal,self,No,m,m,1,688
1,19,right,male,6,34,他人,CirG.bmp,Self,Good,other,No,m,m,1,935
1,19,right,male,6,35,自己,SqrG.bmp,Other,Good,self,No,m,m,1,561
1,19,right,male,6,36,自己,CirB.bmp,Self,Bad,self,Yes,n,n,1,445
1,19,right,male,6,37,自己,SqrN.bmp,Other,Normal,self,No,m,m,1,699
1,19,right,male,6,38,他人,SqrG.bmp,Other,Good,other,Yes,n,n,1,935
1,19,right,male,6,39,他人,CirB.bmp,Self,Bad,other,No,m,m,1,677
1,19,right,male,6,40,他人,CirG.bmp,Self,Good,other,No,m,m,1,653
1,19,right,male,6,41,他人,SqrB.bmp,Other,Bad,other,Yes,n,n,1,717
1,19,right,male,6,42,他人,SqrN.bmp,Other,Normal,other,Yes,n,n,1,671
1,19,right,male,6,43,自己,CirB.bmp,Self,Bad,self,Yes,n,n,1,518
1,19,right,male,6,44,自己,SqrB.bmp,Other,Bad,self,No,m,m,1,658
1,19,right,male,6,45,自己,CirN.bmp,Self,Normal,self,Yes,n,n,1,536
1,19,right,male,6,46,自己,CirG.bmp,Self,Good,self,Yes,n,n,1,532
1,19,right,male,6,47,自己,SqrG.bmp,Other,Good,self,No,m,m,1,623
1,19,right,male,6,48,他人,CirN.bmp,Self,Normal,other,No,m,m,1,565
1,19,right,male,6,49,他人,SqrN.bmp,Other,Normal,other,Yes,n,n,1,627
1,19,right,male,6,50,自己,SqrB.bmp,Other,Bad,self,No,m,m,1,633
1,19,right,male,6,51,他人,SqrB.bmp,Other,Bad,other,Yes,n,n,1,657
1,19,right,male,6,52,他人,SqrG.bmp,Other,Good,other,Yes,n,n,1,713
1,19,right,male,6,53,自己,CirG.bmp,Self,Good,self,Yes,n,n,1,573
1,19,right,male,6,54,自己,SqrG.bmp,Other,Good,self,No,m,m,1,602
1,19,right,male,6,55,他人,CirG.bmp,Self,Good,other,No,n,m,0,485
1,19,right,male,6,56,他人,CirB.bmp,Self,Bad,other,No,m,m,1,562
1,19,right,male,6,57,自己,CirB.bmp,Self,Bad,self,Yes,n,n,1,474
1,19,right,male,6,58,他人,CirN.bmp,Self,Normal,other,No,m,m,1,770
1,19,right,male,6,59,自己,SqrN.bmp,Other,Normal,self,No,m,m,1,836
1,19,right,male,6,60,自己,CirN.bmp,Self,Normal,self,Yes,n,n,1,672
10,18,right,male,,1,自己,CirB.bmp,Other,Bad,self,No,,m,0,0
10,18,right,male,,2,他人,SqrB.bmp,Self,Bad,other,No,,m,0,0
10,18,right,male,,3,他人,CirB.bmp,Other,Bad,other,Yes,n,n,1,364
10,18,right,male,,4,他人,CirN.bmp,Other,Normal,other,Yes,m,n,0,670
10,18,right,male,,5,他人,SqrN.bmp,Self,Normal,other,No,n,m,0,494
10,18,right,male,,6,自己,CirN.bmp,Other,Normal,self,No,m,m,1,898
10,18,right,male,,7,自己,SqrN.bmp,Self,Normal,self,Yes,m,n,0,517
10,18,right,male,,8,他人,CirG.bmp,Other,Good,other,Yes,n,n,1,787
10,18,right,male,,9,自己,SqrG.bmp,Self,Good,self,Yes,m,n,0,767
10,18,right,male,,10,自己,CirG.bmp,Other,Good,self,No,m,m,1,875
10,18,right,male,,11,自己,SqrB.bmp,Self,Bad,self,Yes,n,n,1,1006
10,18,right,male,,12,他人,SqrG.bmp,Self,Good,other,No,n,m,0,692
10,18,right,male,,13,自己,CirG.bmp,Other,Good,self,No,,m,0,0
10,18,right,male,,14,他人,CirN.bmp,Other,Normal,other,Yes,n,n,1,953
10,18,right,male,,15,自己,SqrB.bmp,Self,Bad,self,Yes,n,n,1,423
10,18,right,male,,16,自己,CirB.bmp,Other,Bad,self,No,n,m,0,373
10,18,right,male,,17,自己,SqrN.bmp,Self,Normal,self,Yes,m,n,0,521
10,18,right,male,,18,他人,CirG.bmp,Other,Good,other,Yes,m,n,0,989
10,18,right,male,,19,他人,CirB.bmp,Other,Bad,other,Yes,n,n,1,634
10,18,right,male,,20,自己,CirN.bmp,Other,Normal,self,No,n,m,0,1080
10,18,right,male,,21,他人,SqrG.bmp,Self,Good,other,No,m,m,1,944
10,18,right,male,,22,自己,SqrG.bmp,Self,Good,self,Yes,n,n,1,1060
10,18,right,male,,23,他人,SqrN.bmp,Self,Normal,other,No,,m,0,0
10,18,right,male,,24,他人,SqrB.bmp,Self,Bad,other,No,n,m,0,756
10,18,right,male,,25,他人,CirG.bmp,Other,Good,other,Yes,m,n,0,733
10,18,right,male,,26,自己,SqrG.bmp,Self,Good,self,Yes,,n,0,0
10,18,right,male,,27,自己,CirB.bmp,Other,Bad,self,No,m,m,1,646
10,18,right,male,,28,自己,CirG.bmp,Other,Good,self,No,n,m,0,760
10,18,right,male,,29,他人,SqrN.bmp,Self,Normal,other,No,,m,0,0
10,18,right,male,,30,自己,CirN.bmp,Other,Normal,self,No,,m,0,0
10,18,right,male,,31,他人,SqrG.bmp,Self,Good,other,No,,m,0,0
10,18,right,male,,32,自己,SqrB.bmp,Self,Bad,self,Yes,,n,0,0
10,18,right,male,,33,他人,SqrB.bmp,Self,Bad,other,No,m,m,1,535
10,18,right,male,,34,他人,CirB.bmp,Other,Bad,other,Yes,n,n,1,859
10,18,right,male,,35,自己,SqrN.bmp,Self,Normal,self,Yes,,n,0,0
10,18,right,male,,36,他人,CirN.bmp,Other,Normal,other,Yes,m,n,0,591
10,18,right,male,,37,他人,CirB.bmp,Other,Bad,other,Yes,n,n,1,475
10,18,right,male,,38,他人,SqrN.bmp,Self,Normal,other,No,m,m,1,705
10,18,right,male,,39,自己,SqrG.bmp,Self,Good,self,Yes,n,n,1,240
10,18,right,male,,40,他人,SqrB.bmp,Self,Bad,other,No,m,m,1,256
10,18,right,male,,41,自己,CirB.bmp,Other,Bad,self,No,,m,0,0
10,18,right,male,,42,他人,SqrG.bmp,Self,Good,other,No,m,m,1,384
10,18,right,male,,43,自己,CirN.bmp,Other,Normal,self,No,n,m,0,312
10,18,right,male,,44,自己,SqrB.bmp,Self,Bad,self,Yes,m,n,0,325
10,18,right,male,,45,自己,SqrN.bmp,Self,Normal,self,Yes,m,n,0,750
10,18,right,male,,46,他人,CirG.bmp,Other,Good,other,Yes,,n,0,0
10,18,right,male,,47,自己,CirG.bmp,Other,Good,self,No,,m,0,0
10,18,right,male,,48,他人,CirN.bmp,Other,Normal,other,Yes,,n,0,0
10,18,right,male,,49,自己,CirG.bmp,Other,Good,self,No,m,m,1,906
10,18,right,male,,50,自己,SqrG.bmp,Self,Good,self,Yes,,n,0,0
10,18,right,male,,51,他人,CirG.bmp,Other,Good,other,Yes,m,n,0,726
10,18,right,male,,52,自己,CirN.bmp,Other,Normal,self,No,m,m,1,972
10,18,right,male,,53,他人,SqrN.bmp,Self,Normal,other,No,n,m,0,499
10,18,right,male,,54,他人,CirB.bmp,Other,Bad,other,Yes,m,n,0,741
10,18,right,male,,55,他人,SqrG.bmp,Self,Good,other,No,n,m,0,841
10,18,right,male,,56,自己,SqrB.bmp,Self,Bad,self,Yes,,n,0,0
10,18,right,male,,57,他人,CirN.bmp,Other,Normal,other,Yes,m,n,0,565
10,18,right,male,,58,自己,SqrN.bmp,Self,Normal,self,Yes,n,n,1,1051
10,18,right,male,,59,自己,CirB.bmp,Other,Bad,self,No,,m,0,0
10,18,right,male,,60,他人,SqrB.bmp,Self,Bad,other,No,,m,0,0
10,18,right,male,,61,他人,CirN.bmp,Other,Normal,other,Yes,n,n,1,217
10,18,right,male,,62,自己,SqrG.bmp,Self,Good,self,Yes,n,n,1,795
10,18,right,male,,63,自己,SqrN.bmp,Self,Normal,self,Yes,n,n,1,645
10,18,right,male,,64,他人,SqrB.bmp,Self,Bad,other,No,m,m,1,599
10,18,right,male,,65,自己,CirG.bmp,Other,Good,self,No,m,m,1,802
10,18,right,male,,66,他人,SqrG.bmp,Self,Good,other,No,n,m,0,900
10,18,right,male,,67,自己,SqrB.bmp,Self,Bad,self,Yes,m,n,0,998
10,18,right,male,,68,他人,SqrN.bmp,Self,Normal,other,No,m,m,1,876
10,18,right,male,,69,他人,CirB.bmp,Other,Bad,other,Yes,m,n,0,652
10,18,right,male,,70,他人,CirG.bmp,Other,Good,other,Yes,n,n,1,882
10,18,right,male,,71,自己,CirB.bmp,Other,Bad,self,No,m,m,1,745
10,18,right,male,,72,自己,CirN.bmp,Other,Normal,self,No,n,m,0,644
10,18,right,male,,73,自己,CirN.bmp,Other,Normal,self,No,m,m,1,971
10,18,right,male,,74,他人,CirN.bmp,Other,Normal,other,Yes,n,n,1,880
10,18,right,male,,75,他人,CirB.bmp,Other,Bad,other,Yes,n,n,1,918
10,18,right,male,,76,他人,SqrG.bmp,Self,Good,other,No,m,m,1,628
10,18,right,male,,77,自己,SqrB.bmp,Self,Bad,self,Yes,,n,0,0
10,18,right,male,,78,自己,SqrN.bmp,Self,Normal,self,Yes,n,n,1,714
10,18,right,male,,79,他人,CirG.bmp,Other,Good,other,Yes,m,n,0,474
10,18,right,male,,80,自己,SqrG.bmp,Self,Good,self,Yes,n,n,1,1061
10,18,right,male,,81,他人,SqrB.bmp,Self,Bad,other,No,m,m,1,799
10,18,right,male,,82,自己,CirG.bmp,Other,Good,self,No,m,m,1,661
10,18,right,male,,83,自己,CirB.bmp,Other,Bad,self,No,m,m,1,983
10,18,right,male,,84,他人,SqrN.bmp,Self,Normal,other,No,,m,0,0
10,18,right,male,,85,自己,SqrG.bmp,Self,Good,self,Yes,m,n,0,955
10,18,right,male,,86,他人,CirG.bmp,Other,Good,other,Yes,m,n,0,764
10,18,right,male,,87,自己,CirB.bmp,Other,Bad,self,No,n,m,0,865
10,18,right,male,,88,自己,SqrB.bmp,Self,Bad,self,Yes,n,n,1,773
10,18,right,male,,89,自己,CirG.bmp,Other,Good,self,No,n,m,0,1077
10,18,right,male,,90,他人,SqrG.bmp,Self,Good,other,No,,m,0,0
10,18,right,male,,91,他人,SqrN.bmp,Self,Normal,other,No,m,m,1,805
10,18,right,male,,92,他人,SqrB.bmp,Self,Bad,other,No,m,m,1,934
10,18,right,male,,93,他人,CirN.bmp,Other,Normal,other,Yes,n,n,1,742
10,18,right,male,,94,自己,SqrN.bmp,Self,Normal,self,Yes,n,n,1,650
10,18,right,male,,95,他人,CirB.bmp,Other,Bad,other,Yes,,n,0,0
10,18,right,male,,96,自己,CirN.bmp,Other,Normal,self,No,n,m,0,814
10,18,right,male,,97,自己,CirG.bmp,Other,Good,self,No,m,m,1,589
10,18,right,male,,98,自己,CirB.bmp,Other,Bad,self,No,m,m,1,781
10,18,right,male,,99,他人,CirG.bmp,Other,Good,other,Yes,m,n,0,925
10,18,right,male,,100,自己,SqrG.bmp,Self,Good,self,Yes,n,n,1,511
10,18,right,male,,101,他人,SqrB.bmp,Self,Bad,other,No,m,m,1,715
10,18,right,male,,102,自己,CirN.bmp,Other,Normal,self,No,m,m,1,931
10,18,right,male,,103,他人,CirB.bmp,Other,Bad,other,Yes,m,n,0,864
10,18,right,male,,104,自己,SqrB.bmp,Self,Bad,self,Yes,n,n,1,738
10,18,right,male,,105,他人,SqrG.bmp,Self,Good,other,No,m,m,1,858
10,18,right,male,,106,自己,SqrN.bmp,Self,Normal,self,Yes,n,n,1,582
10,18,right,male,,107,他人,CirN.bmp,Other,Normal,other,Yes,m,n,0,670
10,18,right,male,,108,他人,SqrN.bmp,Self,Normal,other,No,m,m,1,765
10,18,right,male,,109,自己,CirN.bmp,Other,Normal,self,No,m,m,1,917
10,18,right,male,,110,自己,SqrN.bmp,Self,Normal,self,Yes,n,n,1,673
10,18,right,male,,111,他人,CirB.bmp,Other,Bad,other,Yes,m,n,0,517
10,18,right,male,,112,他人,SqrN.bmp,Self,Normal,other,No,m,m,1,1047
10,18,right,male,,113,他人,CirN.bmp,Other,Normal,other,Yes,m,n,0,761
10,18,right,male,,114,他人,SqrB.bmp,Self,Bad,other,No,n,m,0,1095
10,18,right,male,,115,自己,CirB.bmp,Other,Bad,self,No,,m,0,0
10,18,right,male,,116,他人,SqrG.bmp,Self,Good,other,No,,m,0,0
10,18,right,male,,117,自己,SqrB.bmp,Self,Bad,self,Yes,n,n,1,728
10,18,right,male,,118,他人,CirG.bmp,Other,Good,other,Yes,m,n,0,502
10,18,right,male,,119,自己,SqrG.bmp,Self,Good,self,Yes,n,n,1,550
10,18,right,male,,120,自己,CirG.bmp,Other,Good,self,No,m,m,1,792
10,18,right,male,,121,他人,CirG.bmp,Other,Good,other,Yes,m,n,0,749
10,18,right,male,,122,他人,SqrB.bmp,Self,Bad,other,No,n,m,0,403
10,18,right,male,,123,自己,CirN.bmp,Other,Normal,self,No,m,m,1,699
10,18,right,male,,124,自己,SqrB.bmp,Self,Bad,self,Yes,n,n,1,579
10,18,right,male,,125,自己,CirG.bmp,Other,Good,self,No,m,m,1,686
10,18,right,male,,126,自己,SqrN.bmp,Self,Normal,self,Yes,n,n,1,458
10,18,right,male,,127,他人,SqrN.bmp,Self,Normal,other,No,m,m,1,632
10,18,right,male,,128,自己,SqrG.bmp,Self,Good,self,Yes,n,n,1,594
10,18,right,male,,129,他人,CirB.bmp,Other,Bad,other,Yes,m,n,0,508
10,18,right,male,,130,他人,SqrG.bmp,Self,Good,other,No,m,m,1,834
10,18,right,male,,131,自己,CirB.bmp,Other,Bad,self,No,n,m,0,557
10,18,right,male,,132,他人,CirN.bmp,Other,Normal,other,Yes,m,n,0,721
10,18,right,male,,133,他人,SqrN.bmp,Self,Normal,other,No,m,m,1,737
10,18,right,male,,134,自己,SqrN.bmp,Self,Normal,self,Yes,n,n,1,541
10,18,right,male,,135,自己,CirB.bmp,Other,Bad,self,No,m,m,1,1009
10,18,right,male,,136,自己,SqrG.bmp,Self,Good,self,Yes,n,n,1,558
10,18,right,male,,137,他人,SqrB.bmp,Self,Bad,other,No,m,m,1,720
10,18,right,male,,138,他人,SqrG.bmp,Self,Good,other,No,m,m,1,746
10,18,right,male,,139,他人,CirN.bmp,Other,Normal,other,Yes,m,n,0,626
10,18,right,male,,140,他人,CirB.bmp,Other,Bad,other,Yes,,n,0,0
10,18,right,male,,141,自己,CirG.bmp,Other,Good,self,No,n,m,0,603
10,18,right,male,,142,他人,CirG.bmp,Other,Good,other,Yes,m,n,0,885
10,18,right,male,,143,自己,SqrB.bmp,Self,Bad,self,Yes,n,n,1,700
10,18,right,male,,144,自己,CirN.bmp,Other,Normal,self,No,m,m,1,1082
10,18,right,male,1,1,他人,CirB.bmp,Other,Bad,other,Yes,m,n,0,947
10,18,right,male,1,2,自己,CirN.bmp,Other,Normal,self,No,m,m,1,887
10,18,right,male,1,3,他人,SqrG.bmp,Self,Good,other,No,m,m,1,673
10,18,right,male,1,4,自己,CirG.bmp,Other,Good,self,No,n,m,0,483
10,18,right,male,1,5,自己,SqrG.bmp,Self,Good,self,Yes,n,n,1,791
10,18,right,male,1,6,他人,SqrB.bmp,Self,Bad,other,No,m,m,1,924
10,18,right,male,1,7,自己,CirB.bmp,Other,Bad,self,No,m,m,1,814
10,18,right,male,1,8,自己,SqrN.bmp,Self,Normal,self,Yes,n,n,1,514
10,18,right,male,1,9,他人,SqrN.bmp,Self,Normal,other,No,m,m,1,616
10,18,right,male,1,10,他人,CirG.bmp,Other,Good,other,Yes,m,n,0,648
10,18,right,male,1,11,自己,SqrB.bmp,Self,Bad,self,Yes,m,n,0,840
10,18,right,male,1,12,他人,CirN.bmp,Other,Normal,other,Yes,n,n,1,595
10,18,right,male,1,13,自己,CirG.bmp,Other,Good,self,No,m,m,1,1049
10,18,right,male,1,14,自己,SqrB.bmp,Self,Bad,self,Yes,n,n,1,495
10,18,right,male,1,15,自己,SqrN.bmp,Self,Normal,self,Yes,m,n,0,583
10,18,right,male,1,16,自己,SqrG.bmp,Self,Good,self,Yes,n,n,1,453
10,18,right,male,1,17,他人,CirG.bmp,Other,Good,other,Yes,m,n,0,1034
10,18,right,male,1,18,自己,CirB.bmp,Other,Bad,self,No,,m,0,0
10,18,right,male,1,19,他人,CirN.bmp,Other,Normal,other,Yes,m,n,0,642
10,18,right,male,1,20,他人,SqrB.bmp,Self,Bad,other,No,n,m,0,371
10,18,right,male,1,21,他人,SqrN.bmp,Self,Normal,other,No,m,m,1,843
10,18,right,male,1,22,他人,CirB.bmp,Other,Bad,other,Yes,m,n,0,601
10,18,right,male,1,23,自己,CirN.bmp,Other,Normal,self,No,n,m,0,763
10,18,right,male,1,24,他人,SqrG.bmp,Self,Good,other,No,m,m,1,732
10,18,right,male,1,25,自己,SqrN.bmp,Self,Normal,self,Yes,m,n,0,652
10,18,right,male,1,26,自己,SqrB.bmp,Self,Bad,self,Yes,n,n,1,478
10,18,right,male,1,27,他人,SqrB.bmp,Self,Bad,other,No,m,m,1,768
10,18,right,male,1,28,自己,CirN.bmp,Other,Normal,self,No,n,m,0,608
10,18,right,male,1,29,他人,CirN.bmp,Other,Normal,other,Yes,m,n,0,614
10,18,right,male,1,30,自己,SqrG.bmp,Self,Good,self,Yes,n,n,1,613
10,18,right,male,1,31,他人,CirB.bmp,Other,Bad,other,Yes,m,n,0,695
10,18,right,male,1,32,自己,CirG.bmp,Other,Good,self,No,m,m,1,997
10,18,right,male,1,33,他人,SqrN.bmp,Self,Normal,other,No,m,m,1,819
10,18,right,male,1,34,自己,CirB.bmp,Other,Bad,self,No,n,m,0,975
10,18,right,male,1,35,他人,SqrG.bmp,Self,Good,other,No,m,m,1,610
10,18,right,male,1,36,他人,CirG.bmp,Other,Good,other,Yes,n,n,1,862
10,18,right,male,1,37,自己,CirG.bmp,Other,Good,self,No,m,m,1,734
10,18,right,male,1,38,自己,SqrN.bmp,Self,Normal,self,Yes,n,n,1,822
10,18,right,male,1,39,他人,SqrB.bmp,Self,Bad,other,No,m,m,1,618
10,18,right,male,1,40,他人,CirG.bmp,Other,Good,other,Yes,n,n,1,892
10,18,right,male,1,41,自己,SqrB.bmp,Self,Bad,self,Yes,n,n,1,655
10,18,right,male,1,42,他人,CirB.bmp,Other,Bad,other,Yes,,n,0,0
10,18,right,male,1,43,自己,CirB.bmp,Other,Bad,self,No,m,m,1,1005
10,18,right,male,1,44,他人,SqrN.bmp,Self,Normal,other,No,m,m,1,789
10,18,right,male,1,45,自己,CirN.bmp,Other,Normal,self,No,m,m,1,885
10,18,right,male,1,46,他人,CirN.bmp,Other,Normal,other,Yes,n,n,1,963
10,18,right,male,1,47,自己,SqrG.bmp,Self,Good,self,Yes,n,n,1,579
10,18,right,male,1,48,他人,SqrG.bmp,Self,Good,other,No,,m,0,0
10,18,right,male,1,49,他人,CirB.bmp,Other,Bad,other,Yes,n,n,1,255
10,18,right,male,1,50,自己,CirB.bmp,Other,Bad,self,No,m,m,1,481
10,18,right,male,1,51,他人,CirN.bmp,Other,Normal,other,Yes,n,n,1,595
10,18,right,male,1,52,自己,SqrB.bmp,Self,Bad,self,Yes,m,n,0,823
10,18,right,male,1,53,他人,CirG.bmp,Other,Good,other,Yes,m,n,0,790
10,18,right,male,1,54,自己,CirG.bmp,Other,Good,self,No,n,m,0,550
10,18,right,male,1,55,他人,SqrN.bmp,Self,Normal,other,No,m,m,1,702
10,18,right,male,1,56,自己,CirN.bmp,Other,Normal,self,No,n,m,0,802
10,18,right,male,1,57,自己,SqrN.bmp,Self,Normal,self,Yes,m,n,0,318
10,18,right,male,1,58,自己,SqrG.bmp,Self,Good,self,Yes,n,n,1,544
10,18,right,male,1,59,他人,SqrG.bmp,Self,Good,other,No,,m,0,0
10,18,right,male,1,60,他人,SqrB.bmp,Self,Bad,other,No,n,m,0,997
10,18,right,male,2,1,他人,CirN.bmp,Other,Normal,other,Yes,m,n,0,827
10,18,right,male,2,2,他人,SqrG.bmp,Self,Good,other,No,m,m,1,963
10,18,right,male,2,3,自己,SqrN.bmp,Self,Normal,self,Yes,n,n,1,616
10,18,right,male,2,4,他人,CirB.bmp,Other,Bad,other,Yes,m,n,0,694
10,18,right,male,2,5,他人,CirG.bmp,Other,Good,other,Yes,n,n,1,521
10,18,right,male,2,6,自己,CirB.bmp,Other,Bad,self,No,m,m,1,891
10,18,right,male,2,7,自己,SqrB.bmp,Self,Bad,self,Yes,n,n,1,787
10,18,right,male,2,8,自己,CirG.bmp,Other,Good,self,No,m,m,1,993
10,18,right,male,2,9,自己,CirN.bmp,Other,Normal,self,No,m,m,1,869
10,18,right,male,2,10,他人,SqrN.bmp,Self,Normal,other,No,n,m,0,1007
10,18,right,male,2,11,自己,SqrG.bmp,Self,Good,self,Yes,n,n,1,827
10,18,right,male,2,12,他人,SqrB.bmp,Self,Bad,other,No,m,m,1,820
10,18,right,male,2,13,他人,CirN.bmp,Other,Normal,other,Yes,m,n,0,658
10,18,right,male,2,14,自己,CirG.bmp,Other,Good,self,No,,m,0,0
10,18,right,male,2,15,他人,SqrG.bmp,Self,Good,other,No,n,m,0,1040
10,18,right,male,2,16,他人,CirB.bmp,Other,Bad,other,Yes,m,n,0,1032
10,18,right,male,2,17,他人,SqrB.bmp,Self,Bad,other,No,n,m,0,508
10,18,right,male,2,18,自己,CirN.bmp,Other,Normal,self,No,m,m,1,1001
10,18,right,male,2,19,自己,SqrB.bmp,Self,Bad,self,Yes,n,n,1,829
10,18,right,male,2,20,他人,CirG.bmp,Other,Good,other,Yes,n,n,1,1077
10,18,right,male,2,21,自己,SqrN.bmp,Self,Normal,self,Yes,n,n,1,949
10,18,right,male,2,22,自己,CirB.bmp,Other,Bad,self,No,n,m,0,895
10,18,right,male,2,23,自己,SqrG.bmp,Self,Good,self,Yes,n,n,1,621
10,18,right,male,2,24,他人,SqrN.bmp,Self,Normal,other,No,m,m,1,680
10,18,right,male,2,25,他人,CirB.bmp,Other,Bad,other,Yes,n,n,1,272
10,18,right,male,2,26,自己,CirB.bmp,Other,Bad,self,No,n,m,0,782
10,18,right,male,2,27,他人,CirG.bmp,Other,Good,other,Yes,m,n,0,478
10,18,right,male,2,28,自己,CirN.bmp,Other,Normal,self,No,n,m,0,204
10,18,right,male,2,29,自己,SqrN.bmp,Self,Normal,self,Yes,m,n,0,127
10,18,right,male,2,30,他人,CirN.bmp,Other,Normal,other,Yes,m,n,0,965
10,18,right,male,2,31,他人,SqrB.bmp,Self,Bad,other,No,n,m,0,734
10,18,right,male,2,32,自己,CirG.bmp,Other,Good,self,No,,m,0,0
10,18,right,male,2,33,自己,SqrG.bmp,Self,Good,self,Yes,n,n,1,776
10,18,right,male,2,34,自己,SqrB.bmp,Self,Bad,self,Yes,n,n,1,624
10,18,right,male,2,35,他人,SqrG.bmp,Self,Good,other,No,m,m,1,607
10,18,right,male,2,36,他人,SqrN.bmp,Self,Normal,other,No,n,m,0,543
10,18,right,male,2,37,自己,CirB.bmp,Other,Bad,self,No,m,m,1,765
10,18,right,male,2,38,他人,CirN.bmp,Other,Normal,other,Yes,n,n,1,1035
10,18,right,male,2,39,自己,SqrG.bmp,Self,Good,self,Yes,n,n,1,537
10,18,right,male,2,40,他人,SqrG.bmp,Self,Good,other,No,m,m,1,769
10,18,right,male,2,41,他人,CirG.bmp,Other,Good,other,Yes,m,n,0,859
10,18,right,male,2,42,自己,CirG.bmp,Other,Good,self,No,m,m,1,812
10,18,right,male,2,43,他人,SqrB.bmp,Self,Bad,other,No,m,m,1,1080
10,18,right,male,2,44,自己,SqrN.bmp,Self,Normal,self,Yes,n,n,1,576
10,18,right,male,2,45,他人,SqrN.bmp,Self,Normal,other,No,n,m,0,888
10,18,right,male,2,46,自己,CirN.bmp,Other,Normal,self,No,m,m,1,616
10,18,right,male,2,47,自己,SqrB.bmp,Self,Bad,self,Yes,n,n,1,1035
10,18,right,male,2,48,他人,CirB.bmp,Other,Bad,other,Yes,,n,0,0
10,18,right,male,2,49,自己,CirN.bmp,Other,Normal,self,No,m,m,1,449
10,18,right,male,2,50,他人,SqrN.bmp,Self,Normal,other,No,m,m,1,659
10,18,right,male,2,51,自己,CirB.bmp,Other,Bad,self,No,m,m,1,695
10,18,right,male,2,52,他人,CirG.bmp,Other,Good,other,Yes,n,n,1,721
10,18,right,male,2,53,他人,SqrB.bmp,Self,Bad,other,No,m,m,1,1044
10,18,right,male,2,54,他人,CirB.bmp,Other,Bad,other,Yes,m,n,0,600
10,18,right,male,2,55,自己,CirG.bmp,Other,Good,self,No,m,m,1,892
10,18,right,male,2,56,他人,SqrG.bmp,Self,Good,other,No,m,m,1,806
10,18,right,male,2,57,自己,SqrN.bmp,Self,Normal,self,Yes,n,n,1,626
10,18,right,male,2,58,自己,SqrG.bmp,Self,Good,self,Yes,m,n,0,246
10,18,right,male,2,59,自己,SqrB.bmp,Self,Bad,self,Yes,n,n,1,589
10,18,right,male,2,60,他人,CirN.bmp,Other,Normal,other,Yes,n,n,1,596
10,18,right,male,3,1,自己,CirN.bmp,Other,Normal,self,No,m,m,1,898
10,18,right,male,3,2,他人,SqrB.bmp,Self,Bad,other,No,m,m,1,642
10,18,right,male,3,3,自己,CirB.bmp,Other,Bad,self,No,m,m,1,516
10,18,right,male,3,4,自己,SqrN.bmp,Self,Normal,self,Yes,n,n,1,646
10,18,right,male,3,5,自己,SqrG.bmp,Self,Good,self,Yes,n,n,1,693
10,18,right,male,3,6,他人,CirN.bmp,Other,Normal,other,Yes,m,n,0,783
10,18,right,male,3,7,自己,SqrB.bmp,Self,Bad,self,Yes,n,n,1,615
10,18,right,male,3,8,他人,CirG.bmp,Other,Good,other,Yes,n,n,1,551
10,18,right,male,3,9,自己,CirG.bmp,Other,Good,self,No,n,m,0,577
10,18,right,male,3,10,他人,SqrN.bmp,Self,Normal,other,No,m,m,1,863
10,18,right,male,3,11,他人,CirB.bmp,Other,Bad,other,Yes,m,n,0,911
10,18,right,male,3,12,他人,SqrG.bmp,Self,Good,other,No,,m,0,0
10,18,right,male,3,13,自己,SqrN.bmp,Self,Normal,self,Yes,n,n,1,794
10,18,right,male,3,14,他人,CirG.bmp,Other,Good,other,Yes,n,n,1,800
10,18,right,male,3,15,他人,SqrB.bmp,Self,Bad,other,No,m,m,1,913
10,18,right,male,3,16,自己,SqrG.bmp,Self,Good,self,Yes,n,n,1,753
10,18,right,male,3,17,自己,CirG.bmp,Other,Good,self,No,m,m,1,897
10,18,right,male,3,18,他人,CirN.bmp,Other,Normal,other,Yes,n,n,1,763
10,18,right,male,3,19,自己,CirB.bmp,Other,Bad,self,No,n,m,0,466
10,18,right,male,3,20,自己,CirN.bmp,Other,Normal,self,No,m,m,1,1046
10,18,right,male,3,21,他人,SqrG.bmp,Self,Good,other,No,,m,0,0
10,18,right,male,3,22,他人,CirB.bmp,Other,Bad,other,Yes,n,n,1,366
10,18,right,male,3,23,他人,SqrN.bmp,Self,Normal,other,No,m,m,1,396
10,18,right,male,3,24,自己,SqrB.bmp,Self,Bad,self,Yes,n,n,1,588
10,18,right,male,3,25,他人,CirG.bmp,Other,Good,other,Yes,m,n,0,601
10,18,right,male,3,26,自己,SqrG.bmp,Self,Good,self,Yes,n,n,1,207
10,18,right,male,3,27,自己,SqrB.bmp,Self,Bad,self,Yes,n,n,1,431
10,18,right,male,3,28,自己,CirN.bmp,Other,Normal,self,No,m,m,1,687
10,18,right,male,3,29,他人,SqrN.bmp,Self,Normal,other,No,n,m,0,915
10,18,right,male,3,30,自己,SqrN.bmp,Self,Normal,self,Yes,n,n,1,620
10,18,right,male,3,31,自己,CirB.bmp,Other,Bad,self,No,m,m,1,882
10,18,right,male,3,32,自己,CirG.bmp,Other,Good,self,No,n,m,0,594
10,18,right,male,3,33,他人,CirB.bmp,Other,Bad,other,Yes,n,n,1,830
10,18,right,male,3,34,他人,CirN.bmp,Other,Normal,other,Yes,n,n,1,748
10,18,right,male,3,35,他人,SqrB.bmp,Self,Bad,other,No,m,m,1,302
10,18,right,male,3,36,他人,SqrG.bmp,Self,Good,other,No,n,m,0,70
10,18,right,male,3,37,自己,CirG.bmp,Other,Good,self,No,,m,0,0
10,18,right,male,3,38,自己,CirB.bmp,Other,Bad,self,No,m,m,1,539
10,18,right,male,3,39,他人,SqrN.bmp,Self,Normal,other,No,n,m,0,219
10,18,right,male,3,40,他人,SqrB.bmp,Self,Bad,other,No,m,m,1,393
10,18,right,male,3,41,他人,CirG.bmp,Other,Good,other,Yes,m,n,0,281
10,18,right,male,3,42,自己,SqrN.bmp,Self,Normal,self,Yes,n,n,1,87
10,18,right,male,3,43,他人,CirB.bmp,Other,Bad,other,Yes,m,n,0,450
10,18,right,male,3,44,自己,SqrG.bmp,Self,Good,self,Yes,n,n,1,393
10,18,right,male,3,45,他人,CirN.bmp,Other,Normal,other,Yes,n,n,1,387
10,18,right,male,3,46,自己,CirN.bmp,Other,Normal,self,No,n,m,0,409
10,18,right,male,3,47,自己,SqrB.bmp,Self,Bad,self,Yes,m,n,0,617
10,18,right,male,3,48,他人,SqrG.bmp,Self,Good,other,No,n,m,0,213
10,18,right,male,3,49,他人,CirN.bmp,Other,Normal,other,Yes,n,n,1,678
10,18,right,male,3,50,自己,CirG.bmp,Other,Good,self,No,m,m,1,736
10,18,right,male,3,51,自己,SqrG.bmp,Self,Good,self,Yes,n,n,1,218
10,18,right,male,3,52,自己,SqrB.bmp,Self,Bad,self,Yes,n,n,1,334
10,18,right,male,3,53,他人,SqrN.bmp,Self,Normal,other,No,n,m,0,402
10,18,right,male,3,54,自己,CirB.bmp,Other,Bad,self,No,m,m,1,712
10,18,right,male,3,55,他人,SqrB.bmp,Self,Bad,other,No,n,m,0,247
10,18,right,male,3,56,他人,CirB.bmp,Other,Bad,other,Yes,m,n,0,11
10,18,right,male,3,57,自己,SqrN.bmp,Self,Normal,self,Yes,n,n,1,501
10,18,right,male,3,58,自己,CirN.bmp,Other,Normal,self,No,m,m,1,431
10,18,right,male,3,59,他人,CirG.bmp,Other,Good,other,Yes,n,n,1,613
10,18,right,male,3,60,他人,SqrG.bmp,Self,Good,other,No,m,m,1,758
10,18,right,male,4,1,他人,SqrB.bmp,Self,Bad,other,No,m,m,1,971
10,18,right,male,4,2,自己,CirG.bmp,Other,Good,self,No,m,m,1,619
10,18,right,male,4,3,自己,SqrB.bmp,Self,Bad,self,Yes,n,n,1,477
10,18,right,male,4,4,自己,CirB.bmp,Other,Bad,self,No,m,m,1,707
10,18,right,male,4,5,自己,CirN.bmp,Other,Normal,self,No,m,m,1,820
10,18,right,male,4,6,他人,SqrG.bmp,Self,Good,other,No,m,m,1,778
10,18,right,male,4,7,他人,CirG.bmp,Other,Good,other,Yes,n,n,1,502
10,18,right,male,4,8,自己,SqrN.bmp,Self,Normal,self,Yes,n,n,1,1038
10,18,right,male,4,9,他人,SqrN.bmp,Self,Normal,other,No,m,m,1,564
10,18,right,male,4,10,他人,CirB.bmp,Other,Bad,other,Yes,n,n,1,702
10,18,right,male,4,11,自己,SqrG.bmp,Self,Good,self,Yes,m,n,0,487
10,18,right,male,4,12,他人,CirN.bmp,Other,Normal,other,Yes,m,n,0,605
10,18,right,male,4,13,他人,SqrN.bmp,Self,Normal,other,No,n,m,0,671
10,18,right,male,4,14,自己,SqrN.bmp,Self,Normal,self,Yes,n,n,1,521
10,18,right,male,4,15,自己,SqrG.bmp,Self,Good,self,Yes,n,n,1,581
10,18,right,male,4,16,他人,SqrG.bmp,Self,Good,other,No,n,m,0,383
10,18,right,male,4,17,自己,CirN.bmp,Other,Normal,self,No,m,m,1,682
10,18,right,male,4,18,他人,SqrB.bmp,Self,Bad,other,No,m,m,1,808
10,18,right,male,4,19,他人,CirB.bmp,Other,Bad,other,Yes,m,n,0,626
10,18,right,male,4,20,自己,SqrB.bmp,Self,Bad,self,Yes,n,n,1,796
10,18,right,male,4,21,他人,CirG.bmp,Other,Good,other,Yes,m,n,0,578
10,18,right,male,4,22,他人,CirN.bmp,Other,Normal,other,Yes,n,n,1,614
10,18,right,male,4,23,自己,CirB.bmp,Other,Bad,self,No,m,m,1,844
10,18,right,male,4,24,自己,CirG.bmp,Other,Good,self,No,n,m,0,597
10,18,right,male,4,25,他人,SqrG.bmp,Self,Good,other,No,m,m,1,893
10,18,right,male,4,26,自己,CirB.bmp,Other,Bad,self,No,m,m,1,815
10,18,right,male,4,27,自己,SqrN.bmp,Self,Normal,self,Yes,n,n,1,1036
10,18,right,male,4,28,他人,CirN.bmp,Other,Normal,other,Yes,n,n,1,814
10,18,right,male,4,29,自己,SqrB.bmp,Self,Bad,self,Yes,m,n,0,837
10,18,right,male,4,30,自己,CirG.bmp,Other,Good,self,No,m,m,1,717
10,18,right,male,4,31,他人,CirG.bmp,Other,Good,other,Yes,m,n,0,933
10,18,right,male,4,32,自己,SqrG.bmp,Self,Good,self,Yes,n,n,1,617
10,18,right,male,4,33,他人,SqrB.bmp,Self,Bad,other,No,m,m,1,811
10,18,right,male,4,34,他人,SqrN.bmp,Self,Normal,other,No,m,m,1,737
10,18,right,male,4,35,他人,CirB.bmp,Other,Bad,other,Yes,m,n,0,811
10,18,right,male,4,36,自己,CirN.bmp,Other,Normal,self,No,n,m,0,622
10,18,right,male,4,37,他人,CirB.bmp,Other,Bad,other,Yes,m,n,0,694
10,18,right,male,4,38,他人,CirN.bmp,Other,Normal,other,Yes,n,n,1,710
10,18,right,male,4,39,他人,SqrN.bmp,Self,Normal,other,No,m,m,1,948
10,18,right,male,4,40,他人,SqrG.bmp,Self,Good,other,No,m,m,1,794
10,18,right,male,4,41,他人,SqrB.bmp,Self,Bad,other,No,m,m,1,766
10,18,right,male,4,42,他人,CirG.bmp,Other,Good,other,Yes,m,n,0,645
10,18,right,male,4,43,自己,SqrG.bmp,Self,Good,self,Yes,n,n,1,713
10,18,right,male,4,44,自己,CirG.bmp,Other,Good,self,No,m,m,1,841
10,18,right,male,4,45,自己,SqrB.bmp,Self,Bad,self,Yes,n,n,1,555
10,18,right,male,4,46,自己,CirB.bmp,Other,Bad,self,No,m,m,1,825
10,18,right,male,4,47,自己,SqrN.bmp,Self,Normal,self,Yes,n,n,1,525
10,18,right,male,4,48,自己,CirN.bmp,Other,Normal,self,No,n,m,0,668
10,18,right,male,4,49,他人,CirB.bmp,Other,Bad,other,Yes,,n,0,0
10,18,right,male,4,50,他人,SqrN.bmp,Self,Normal,other,No,n,m,0,960
10,18,right,male,4,51,他人,CirG.bmp,Other,Good,other,Yes,m,n,0,640
10,18,right,male,4,52,自己,SqrG.bmp,Self,Good,self,Yes,n,n,1,506
10,18,right,male,4,53,自己,CirN.bmp,Other,Normal,self,No,m,m,1,606
10,18,right,male,4,54,自己,CirG.bmp,Other,Good,self,No,m,m,1,980
10,18,right,male,4,55,他人,CirN.bmp,Other,Normal,other,Yes,n,n,1,752
10,18,right,male,4,56,自己,SqrB.bmp,Self,Bad,self,Yes,n,n,1,730
10,18,right,male,4,57,自己,CirB.bmp,Other,Bad,self,No,m,m,1,834
10,18,right,male,4,58,他人,SqrG.bmp,Self,Good,other,No,m,m,1,694
10,18,right,male,4,59,自己,SqrN.bmp,Self,Normal,self,Yes,n,n,1,706
10,18,right,male,4,60,他人,SqrB.bmp,Self,Bad,other,No,m,m,1,687
10,18,right,male,5,1,自己,CirG.bmp,Other,Good,self,No,m,m,1,718
10,18,right,male,5,2,自己,SqrB.bmp,Self,Bad,self,Yes,n,n,1,663
10,18,right,male,5,3,他人,CirG.bmp,Other,Good,other,Yes,m,n,0,580
10,18,right,male,5,4,自己,SqrN.bmp,Self,Normal,self,Yes,n,n,1,454
10,18,right,male,5,5,他人,SqrB.bmp,Self,Bad,other,No,m,m,1,868
10,18,right,male,5,6,他人,SqrG.bmp,Self,Good,other,No,n,m,0,682
10,18,right,male,5,7,自己,CirB.bmp,Other,Bad,self,No,m,m,1,886
10,18,right,male,5,8,自己,CirN.bmp,Other,Normal,self,No,n,m,0,634
10,18,right,male,5,9,他人,CirB.bmp,Other,Bad,other,Yes,m,n,0,828
10,18,right,male,5,10,自己,SqrG.bmp,Self,Good,self,Yes,n,n,1,589
10,18,right,male,5,11,他人,CirN.bmp,Other,Normal,other,Yes,m,n,0,637
10,18,right,male,5,12,他人,SqrN.bmp,Self,Normal,other,No,m,m,1,679
10,18,right,male,5,13,他人,SqrB.bmp,Self,Bad,other,No,,m,0,0
10,18,right,male,5,14,他人,CirG.bmp,Other,Good,other,Yes,n,n,1,863
10,18,right,male,5,15,他人,SqrN.bmp,Self,Normal,other,No,m,m,1,899
10,18,right,male,5,16,自己,SqrB.bmp,Self,Bad,self,Yes,n,n,1,550
10,18,right,male,5,17,他人,SqrG.bmp,Self,Good,other,No,m,m,1,816
10,18,right,male,5,18,自己,SqrG.bmp,Self,Good,self,Yes,n,n,1,590
10,18,right,male,5,19,自己,CirB.bmp,Other,Bad,self,No,m,m,1,784
10,18,right,male,5,20,自己,CirN.bmp,Other,Normal,self,No,m,m,1,996
10,18,right,male,5,21,他人,CirN.bmp,Other,Normal,other,Yes,n,n,1,864
10,18,right,male,5,22,自己,CirG.bmp,Other,Good,self,No,m,m,1,717
10,18,right,male,5,23,他人,CirB.bmp,Other,Bad,other,Yes,n,n,1,987
10,18,right,male,5,24,自己,SqrN.bmp,Self,Normal,self,Yes,n,n,1,721
10,18,right,male,5,25,他人,CirG.bmp,Other,Good,other,Yes,,n,0,0
10,18,right,male,5,26,自己,SqrG.bmp,Self,Good,self,Yes,n,n,1,627
10,18,right,male,5,27,他人,SqrB.bmp,Self,Bad,other,No,m,m,1,563
10,18,right,male,5,28,他人,CirB.bmp,Other,Bad,other,Yes,n,n,1,928
10,18,right,male,5,29,自己,SqrN.bmp,Self,Normal,self,Yes,n,n,1,966
10,18,right,male,5,30,自己,CirB.bmp,Other,Bad,self,No,m,m,1,755
10,18,right,male,5,31,他人,SqrN.bmp,Self,Normal,other,No,n,m,0,511
10,18,right,male,5,32,自己,CirG.bmp,Other,Good,self,No,m,m,1,891
10,18,right,male,5,33,自己,CirN.bmp,Other,Normal,self,No,m,m,1,787
10,18,right,male,5,34,自己,SqrB.bmp,Self,Bad,self,Yes,n,n,1,624
10,18,right,male,5,35,他人,SqrG.bmp,Self,Good,other,No,m,m,1,972
10,18,right,male,5,36,他人,CirN.bmp,Other,Normal,other,Yes,n,n,1,734
10,18,right,male,5,37,自己,CirB.bmp,Other,Bad,self,No,m,m,1,602
10,18,right,male,5,38,自己,SqrG.bmp,Self,Good,self,Yes,n,n,1,414
10,18,right,male,5,39,他人,CirG.bmp,Other,Good,other,Yes,m,n,0,582
10,18,right,male,5,40,自己,CirG.bmp,Other,Good,self,No,n,m,0,592
10,18,right,male,5,41,他人,SqrG.bmp,Self,Good,other,No,n,m,0,467
10,18,right,male,5,42,他人,CirB.bmp,Other,Bad,other,Yes,n,n,1,825
10,18,right,male,5,43,他人,SqrN.bmp,Self,Normal,other,No,m,m,1,537
10,18,right,male,5,44,自己,SqrB.bmp,Self,Bad,self,Yes,n,n,1,305
10,18,right,male,5,45,他人,CirN.bmp,Other,Normal,other,Yes,m,n,0,559
10,18,right,male,5,46,自己,SqrN.bmp,Self,Normal,self,Yes,n,n,1,525
10,18,right,male,5,47,自己,CirN.bmp,Other,Normal,self,No,m,m,1,816
10,18,right,male,5,48,他人,SqrB.bmp,Self,Bad,other,No,n,m,0,784
10,18,right,male,5,49,自己,CirN.bmp,Other,Normal,self,No,m,m,1,768
10,18,right,male,5,50,自己,CirG.bmp,Other,Good,self,No,m,m,1,704
10,18,right,male,5,51,他人,SqrN.bmp,Self,Normal,other,No,m,m,1,896
10,18,right,male,5,52,自己,CirB.bmp,Other,Bad,self,No,m,m,1,940
10,18,right,male,5,53,自己,SqrB.bmp,Self,Bad,self,Yes,n,n,1,685
10,18,right,male,5,54,自己,SqrG.bmp,Self,Good,self,Yes,n,n,1,493
10,18,right,male,5,55,自己,SqrN.bmp,Self,Normal,self,Yes,n,n,1,541
10,18,right,male,5,56,他人,SqrB.bmp,Self,Bad,other,No,m,m,1,683
10,18,right,male,5,57,他人,SqrG.bmp,Self,Good,other,No,m,m,1,749
10,18,right,male,5,58,他人,CirN.bmp,Other,Normal,other,Yes,m,n,0,728
10,18,right,male,5,59,他人,CirB.bmp,Other,Bad,other,Yes,n,n,1,435
10,18,right,male,5,60,他人,CirG.bmp,Other,Good,other,Yes,m,n,0,759
10,18,right,male,6,1,自己,CirB.bmp,Other,Bad,self,No,m,m,1,815
10,18,right,male,6,2,他人,SqrG.bmp,Self,Good,other,No,n,m,0,837
10,18,right,male,6,3,自己,CirG.bmp,Other,Good,self,No,m,m,1,750
10,18,right,male,6,4,他人,SqrN.bmp,Self,Normal,other,No,m,m,1,818
10,18,right,male,6,5,自己,SqrB.bmp,Self,Bad,self,Yes,n,n,1,526
10,18,right,male,6,6,自己,SqrN.bmp,Self,Normal,self,Yes,n,n,1,698
10,18,right,male,6,7,他人,CirN.bmp,Other,Normal,other,Yes,m,n,0,696
10,18,right,male,6,8,他人,CirG.bmp,Other,Good,other,Yes,n,n,1,517
10,18,right,male,6,9,他人,SqrB.bmp,Self,Bad,other,No,m,m,1,693
10,18,right,male,6,10,他人,CirB.bmp,Other,Bad,other,Yes,n,n,1,713
10,18,right,male,6,11,自己,SqrG.bmp,Self,Good,self,Yes,n,n,1,455
10,18,right,male,6,12,自己,CirN.bmp,Other,Normal,self,No,m,m,1,777
10,18,right,male,6,13,自己,CirN.bmp,Other,Normal,self,No,n,m,0,509
10,18,right,male,6,14,他人,CirG.bmp,Other,Good,other,Yes,m,n,0,864
10,18,right,male,6,15,他人,SqrN.bmp,Self,Normal,other,No,m,m,1,796
10,18,right,male,6,16,自己,CirG.bmp,Other,Good,self,No,n,m,0,1062
10,18,right,male,6,17,自己,SqrB.bmp,Self,Bad,self,Yes,m,n,0,832
10,18,right,male,6,18,他人,CirB.bmp,Other,Bad,other,Yes,m,n,0,1082
10,18,right,male,6,19,他人,SqrG.bmp,Self,Good,other,No,n,m,0,598
10,18,right,male,6,20,他人,CirN.bmp,Other,Normal,other,Yes,,n,0,0
10,18,right,male,6,21,自己,SqrN.bmp,Self,Normal,self,Yes,,n,0,0
10,18,right,male,6,22,他人,SqrB.bmp,Self,Bad,other,No,n,m,0,599
10,18,right,male,6,23,自己,CirB.bmp,Other,Bad,self,No,,m,0,0
10,18,right,male,6,24,自己,SqrG.bmp,Self,Good,self,Yes,,n,0,0
10,18,right,male,6,25,他人,CirN.bmp,Other,Normal,other,Yes,,n,0,0
10,18,right,male,6,26,他人,CirG.bmp,Other,Good,other,Yes,n,n,1,223
10,18,right,male,6,27,自己,SqrN.bmp,Self,Normal,self,Yes,n,n,1,601
10,18,right,male,6,28,自己,SqrB.bmp,Self,Bad,self,Yes,n,n,1,565
10,18,right,male,6,29,他人,SqrG.bmp,Self,Good,other,No,m,m,1,679
10,18,right,male,6,30,自己,CirN.bmp,Other,Normal,self,No,,m,0,0
10,18,right,male,6,31,自己,CirB.bmp,Other,Bad,self,No,m,m,1,581
10,18,right,male,6,32,他人,SqrB.bmp,Self,Bad,other,No,n,m,0,796
10,18,right,male,6,33,自己,SqrG.bmp,Self,Good,self,Yes,n,n,1,682
10,18,right,male,6,34,他人,CirB.bmp,Other,Bad,other,Yes,n,n,1,916
10,18,right,male,6,35,他人,SqrN.bmp,Self,Normal,other,No,m,m,1,652
10,18,right,male,6,36,自己,CirG.bmp,Other,Good,self,No,n,m,0,688
10,18,right,male,6,37,自己,CirB.bmp,Other,Bad,self,No,m,m,1,624
10,18,right,male,6,38,自己,CirN.bmp,Other,Normal,self,No,n,m,0,565
10,18,right,male,6,39,他人,CirN.bmp,Other,Normal,other,Yes,m,n,0,443
10,18,right,male,6,40,自己,SqrN.bmp,Self,Normal,self,Yes,n,n,1,599
10,18,right,male,6,41,自己,CirG.bmp,Other,Good,self,No,m,m,1,833
10,18,right,male,6,42,他人,CirB.bmp,Other,Bad,other,Yes,m,n,0,983
10,18,right,male,6,43,他人,SqrN.bmp,Self,Normal,other,No,m,m,1,684
10,18,right,male,6,44,自己,SqrB.bmp,Self,Bad,self,Yes,m,n,0,954
10,18,right,male,6,45,他人,CirG.bmp,Other,Good,other,Yes,m,n,0,656
10,18,right,male,6,46,自己,SqrG.bmp,Self,Good,self,Yes,n,n,1,956
10,18,right,male,6,47,他人,SqrG.bmp,Self,Good,other,No,m,m,1,592
10,18,right,male,6,48,他人,SqrB.bmp,Self,Bad,other,No,n,m,0,1002
10,18,right,male,6,49,他人,SqrB.bmp,Self,Bad,other,No,m,m,1,883
10,18,right,male,6,50,他人,CirN.bmp,Other,Normal,other,Yes,n,n,1,1047
10,18,right,male,6,51,自己,CirB.bmp,Other,Bad,self,No,m,m,1,606
10,18,right,male,6,52,自己,CirN.bmp,Other,Normal,self,No,m,m,1,618
10,18,right,male,6,53,他人,CirG.bmp,Other,Good,other,Yes,n,n,1,766
10,18,right,male,6,54,他人,SqrN.bmp,Self,Normal,other,No,,m,0,0
10,18,right,male,6,55,自己,SqrB.bmp,Self,Bad,self,Yes,,n,0,0
10,18,right,male,6,56,自己,SqrN.bmp,Self,Normal,self,Yes,n,n,1,337
10,18,right,male,6,57,他人,SqrG.bmp,Self,Good,other,No,m,m,1,547
10,18,right,male,6,58,自己,CirG.bmp,Other,Good,self,No,n,m,0,541
10,18,right,male,6,59,他人,CirB.bmp,Other,Bad,other,Yes,n,n,1,653
10,18,right,male,6,60,自己,SqrG.bmp,Self,Good,self,Yes,m,n,0,707
11,21,right,female,,1,他人,CirG.bmp,Self,Good,other,No,,n,0,0
11,21,right,female,,2,他人,SqrG.bmp,Other,Good,other,Yes,,m,0,0
11,21,right,female,,3,自己,CirG.bmp,Self,Good,self,Yes,,m,0,0
11,21,right,female,,4,自己,SqrB.bmp,Other,Bad,self,No,,n,0,0
11,21,right,female,,5,自己,SqrG.bmp,Other,Good,self,No,,n,0,0
11,21,right,female,,6,自己,CirN.bmp,Self,Normal,self,Yes,m,m,1,487
11,21,right,female,,7,他人,CirB.bmp,Self,Bad,other,No,,n,0,0
11,21,right,female,,8,他人,CirN.bmp,Self,Normal,other,No,,n,0,0
11,21,right,female,,9,自己,SqrN.bmp,Other,Normal,self,No,,n,0,0
11,21,right,female,,10,自己,CirB.bmp,Self,Bad,self,Yes,,m,0,0
11,21,right,female,,11,他人,SqrB.bmp,Other,Bad,other,Yes,n,m,0,687
11,21,right,female,,12,他人,SqrN.bmp,Other,Normal,other,Yes,n,m,0,1011
11,21,right,female,,13,他人,SqrN.bmp,Other,Normal,other,Yes,m,m,1,781
11,21,right,female,,14,自己,SqrN.bmp,Other,Normal,self,No,n,n,1,648
11,21,right,female,,15,他人,SqrB.bmp,Other,Bad,other,Yes,n,m,0,786
11,21,right,female,,16,自己,SqrG.bmp,Other,Good,self,No,n,n,1,862
11,21,right,female,,17,自己,SqrB.bmp,Other,Bad,self,No,n,n,1,977
11,21,right,female,,18,自己,CirN.bmp,Self,Normal,self,Yes,m,m,1,527
11,21,right,female,,19,他人,CirB.bmp,Self,Bad,other,No,n,n,1,711
11,21,right,female,,20,他人,CirN.bmp,Self,Normal,other,No,n,n,1,943
11,21,right,female,,21,他人,CirG.bmp,Self,Good,other,No,n,n,1,715
11,21,right,female,,22,自己,CirB.bmp,Self,Bad,self,Yes,m,m,1,643
11,21,right,female,,23,他人,SqrG.bmp,Other,Good,other,Yes,m,m,1,735
11,21,right,female,,24,自己,CirG.bmp,Self,Good,self,Yes,m,m,1,704
11,21,right,female,,25,自己,CirG.bmp,Self,Good,self,Yes,m,m,1,699
11,21,right,female,,26,他人,CirB.bmp,Self,Bad,other,No,n,n,1,699
11,21,right,female,,27,自己,SqrN.bmp,Other,Normal,self,No,n,n,1,755
11,21,right,female,,28,他人,SqrG.bmp,Other,Good,other,Yes,m,m,1,625
11,21,right,female,,29,自己,SqrG.bmp,Other,Good,self,No,n,n,1,661
11,21,right,female,,30,他人,SqrB.bmp,Other,Bad,other,Yes,m,m,1,984
11,21,right,female,,31,他人,CirG.bmp,Self,Good,other,No,n,n,1,622
11,21,right,female,,32,自己,CirN.bmp,Self,Normal,self,Yes,m,m,1,686
11,21,right,female,,33,他人,SqrN.bmp,Other,Normal,other,Yes,n,m,0,640
11,21,right,female,,34,自己,SqrB.bmp,Other,Bad,self,No,n,n,1,844
11,21,right,female,,35,自己,CirB.bmp,Self,Bad,self,Yes,m,m,1,650
11,21,right,female,,36,他人,CirN.bmp,Self,Normal,other,No,n,n,1,534
11,21,right,female,,37,自己,SqrB.bmp,Other,Bad,self,No,m,n,0,886
11,21,right,female,,38,他人,CirN.bmp,Self,Normal,other,No,m,n,0,863
11,21,right,female,,39,他人,CirG.bmp,Self,Good,other,No,,n,0,0
11,21,right,female,,40,他人,CirB.bmp,Self,Bad,other,No,,n,0,0
11,21,right,female,,41,自己,CirB.bmp,Self,Bad,self,Yes,m,m,1,791
11,21,right,female,,42,自己,SqrG.bmp,Other,Good,self,No,n,n,1,797
11,21,right,female,,43,自己,SqrN.bmp,Other,Normal,self,No,n,n,1,855
11,21,right,female,,44,自己,CirG.bmp,Self,Good,self,Yes,m,m,1,789
11,21,right,female,,45,他人,SqrG.bmp,Other,Good,other,Yes,m,m,1,715
11,21,right,female,,46,他人,SqrN.bmp,Other,Normal,other,Yes,m,m,1,775
11,21,right,female,,47,他人,SqrB.bmp,Other,Bad,other,Yes,m,m,1,575
11,21,right,female,,48,自己,CirN.bmp,Self,Normal,self,Yes,m,m,1,547
11,21,right,female,1,1,自己,CirN.bmp,Self,Normal,self,Yes,m,m,1,718
11,21,right,female,1,2,他人,SqrN.bmp,Other,Normal,other,Yes,m,m,1,874
11,21,right,female,1,3,自己,SqrN.bmp,Other,Normal,self,No,n,n,1,1074
11,21,right,female,1,4,他人,SqrG.bmp,Other,Good,other,Yes,m,m,1,749
11,21,right,female,1,5,自己,CirG.bmp,Self,Good,self,Yes,m,m,1,565
11,21,right,female,1,6,他人,SqrB.bmp,Other,Bad,other,Yes,m,m,1,599
11,21,right,female,1,7,自己,SqrG.bmp,Other,Good,self,No,n,n,1,693
11,21,right,female,1,8,他人,CirB.bmp,Self,Bad,other,No,n,n,1,715
11,21,right,female,1,9,自己,CirB.bmp,Self,Bad,self,Yes,m,m,1,613
11,21,right,female,1,10,自己,SqrB.bmp,Other,Bad,self,No,n,n,1,709
11,21,right,female,1,11,他人,CirG.bmp,Self,Good,other,No,n,n,1,853
11,21,right,female,1,12,他人,CirN.bmp,Self,Normal,other,No,n,n,1,614
11,21,right,female,1,13,自己,SqrB.bmp,Other,Bad,self,No,n,n,1,798
11,21,right,female,1,14,自己,CirN.bmp,Self,Normal,self,Yes,m,m,1,682
11,21,right,female,1,15,他人,SqrB.bmp,Other,Bad,other,Yes,n,m,0,790
11,21,right,female,1,16,他人,CirG.bmp,Self,Good,other,No,,n,0,0
11,21,right,female,1,17,自己,CirB.bmp,Self,Bad,self,Yes,m,m,1,614
11,21,right,female,1,18,他人,SqrN.bmp,Other,Normal,other,Yes,n,m,0,648
11,21,right,female,1,19,他人,CirB.bmp,Self,Bad,other,No,n,n,1,788
11,21,right,female,1,20,自己,SqrN.bmp,Other,Normal,self,No,m,n,0,543
11,21,right,female,1,21,自己,CirG.bmp,Self,Good,self,Yes,m,m,1,807
11,21,right,female,1,22,他人,CirN.bmp,Self,Normal,other,No,n,n,1,951
11,21,right,female,1,23,他人,SqrG.bmp,Other,Good,other,Yes,n,m,0,683
11,21,right,female,1,24,自己,SqrG.bmp,Other,Good,self,No,n,n,1,826
11,21,right,female,1,25,自己,CirG.bmp,Self,Good,self,Yes,m,m,1,676
11,21,right,female,1,26,他人,SqrB.bmp,Other,Bad,other,Yes,m,m,1,718
11,21,right,female,1,27,自己,CirN.bmp,Self,Normal,self,Yes,m,m,1,890
11,21,right,female,1,28,自己,SqrG.bmp,Other,Good,self,No,n,n,1,867
11,21,right,female,1,29,他人,CirB.bmp,Self,Bad,other,No,m,n,0,895
11,21,right,female,1,30,自己,SqrB.bmp,Other,Bad,self,No,n,n,1,1059
11,21,right,female,1,31,他人,CirN.bmp,Self,Normal,other,No,n,n,1,817
11,21,right,female,1,32,他人,SqrG.bmp,Other,Good,other,Yes,n,m,0,625
11,21,right,female,1,33,自己,SqrN.bmp,Other,Normal,self,No,n,n,1,731
11,21,right,female,1,34,他人,CirG.bmp,Self,Good,other,No,n,n,1,1093
11,21,right,female,1,35,他人,SqrN.bmp,Other,Normal,other,Yes,n,m,0,989
11,21,right,female,1,36,自己,CirB.bmp,Self,Bad,self,Yes,m,m,1,727
11,21,right,female,1,37,自己,CirN.bmp,Self,Normal,self,Yes,m,m,1,587
11,21,right,female,1,38,自己,CirB.bmp,Self,Bad,self,Yes,m,m,1,590
11,21,right,female,1,39,他人,SqrN.bmp,Other,Normal,other,Yes,n,m,0,578
11,21,right,female,1,40,他人,SqrB.bmp,Other,Bad,other,Yes,m,m,1,902
11,21,right,female,1,41,他人,CirB.bmp,Self,Bad,other,No,n,n,1,764
11,21,right,female,1,42,自己,SqrN.bmp,Other,Normal,self,No,n,n,1,874
11,21,right,female,1,43,自己,SqrG.bmp,Other,Good,self,No,n,n,1,982
11,21,right,female,1,44,他人,CirN.bmp,Self,Normal,other,No,n,n,1,858
11,21,right,female,1,45,他人,CirG.bmp,Self,Good,other,No,n,n,1,691
11,21,right,female,1,46,自己,SqrB.bmp,Other,Bad,self,No,n,n,1,883
11,21,right,female,1,47,自己,CirG.bmp,Self,Good,self,Yes,m,m,1,811
11,21,right,female,1,48,他人,SqrG.bmp,Other,Good,other,Yes,m,m,1,803
11,21,right,female,1,49,他人,SqrB.bmp,Other,Bad,other,Yes,m,m,1,607
11,21,right,female,1,50,他人,CirB.bmp,Self,Bad,other,No,n,n,1,589
11,21,right,female,1,51,自己,SqrB.bmp,Other,Bad,self,No,m,n,0,683
11,21,right,female,1,52,他人,CirN.bmp,Self,Normal,other,No,n,n,1,821
11,21,right,female,1,53,自己,CirG.bmp,Self,Good,self,Yes,m,m,1,601
11,21,right,female,1,54,他人,SqrG.bmp,Other,Good,other,Yes,n,m,0,747
11,21,right,female,1,55,自己,SqrN.bmp,Other,Normal,self,No,m,n,0,788
11,21,right,female,1,56,他人,CirG.bmp,Self,Good,other,No,n,n,1,942
11,21,right,female,1,57,自己,CirB.bmp,Self,Bad,self,Yes,m,m,1,680
11,21,right,female,1,58,他人,SqrN.bmp,Other,Normal,other,Yes,n,m,0,928
11,21,right,female,1,59,自己,SqrG.bmp,Other,Good,self,No,n,n,1,668
11,21,right,female,1,60,自己,CirN.bmp,Self,Normal,self,Yes,m,m,1,702
11,21,right,female,2,1,他人,CirG.bmp,Self,Good,other,No,n,n,1,892
11,21,right,female,2,2,自己,SqrN.bmp,Other,Normal,self,No,n,n,1,778
11,21,right,female,2,3,自己,CirN.bmp,Self,Normal,self,Yes,m,m,1,768
11,21,right,female,2,4,自己,SqrB.bmp,Other,Bad,self,No,n,n,1,798
11,21,right,female,2,5,自己,SqrG.bmp,Other,Good,self,No,n,n,1,610
11,21,right,female,2,6,自己,CirB.bmp,Self,Bad,self,Yes,m,m,1,666
11,21,right,female,2,7,他人,CirN.bmp,Self,Normal,other,No,n,n,1,887
11,21,right,female,2,8,他人,SqrB.bmp,Other,Bad,other,Yes,n,m,0,709
11,21,right,female,2,9,他人,SqrG.bmp,Other,Good,other,Yes,m,m,1,651
11,21,right,female,2,10,他人,SqrN.bmp,Other,Normal,other,Yes,m,m,1,529
11,21,right,female,2,11,他人,CirB.bmp,Self,Bad,other,No,n,n,1,633
11,21,right,female,2,12,自己,CirG.bmp,Self,Good,self,Yes,m,m,1,819
11,21,right,female,2,13,自己,CirB.bmp,Self,Bad,self,Yes,m,m,1,939
11,21,right,female,2,14,自己,SqrN.bmp,Other,Normal,self,No,n,n,1,723
11,21,right,female,2,15,自己,CirN.bmp,Self,Normal,self,Yes,m,m,1,491
11,21,right,female,2,16,自己,CirG.bmp,Self,Good,self,Yes,m,m,1,564
11,21,right,female,2,17,自己,SqrB.bmp,Other,Bad,self,No,n,n,1,596
11,21,right,female,2,18,自己,SqrG.bmp,Other,Good,self,No,n,n,1,788
11,21,right,female,2,19,他人,SqrN.bmp,Other,Normal,other,Yes,m,m,1,748
11,21,right,female,2,20,他人,CirB.bmp,Self,Bad,other,No,n,n,1,692
11,21,right,female,2,21,他人,CirG.bmp,Self,Good,other,No,n,n,1,632
11,21,right,female,2,22,他人,CirN.bmp,Self,Normal,other,No,n,n,1,624
11,21,right,female,2,23,他人,SqrG.bmp,Other,Good,other,Yes,m,m,1,736
11,21,right,female,2,24,他人,SqrB.bmp,Other,Bad,other,Yes,m,m,1,774
11,21,right,female,2,25,他人,SqrB.bmp,Other,Bad,other,Yes,m,m,1,609
11,21,right,female,2,26,他人,CirG.bmp,Self,Good,other,No,n,n,1,627
11,21,right,female,2,27,他人,CirN.bmp,Self,Normal,other,No,n,n,1,875
11,21,right,female,2,28,他人,CirB.bmp,Self,Bad,other,No,n,n,1,663
11,21,right,female,2,29,自己,SqrG.bmp,Other,Good,self,No,m,n,0,397
11,21,right,female,2,30,自己,CirG.bmp,Self,Good,self,Yes,m,m,1,599
11,21,right,female,2,31,自己,SqrN.bmp,Other,Normal,self,No,n,n,1,543
11,21,right,female,2,32,自己,CirN.bmp,Self,Normal,self,Yes,m,m,1,692
11,21,right,female,2,33,他人,SqrN.bmp,Other,Normal,other,Yes,m,m,1,826
11,21,right,female,2,34,自己,SqrB.bmp,Other,Bad,self,No,n,n,1,716
11,21,right,female,2,35,他人,SqrG.bmp,Other,Good,other,Yes,n,m,0,962
11,21,right,female,2,36,自己,CirB.bmp,Self,Bad,self,Yes,m,m,1,1086
11,21,right,female,2,37,自己,CirG.bmp,Self,Good,self,Yes,m,m,1,588
11,21,right,female,2,38,自己,CirB.bmp,Self,Bad,self,Yes,m,m,1,538
11,21,right,female,2,39,自己,SqrB.bmp,Other,Bad,self,No,n,n,1,404
11,21,right,female,2,40,自己,SqrN.bmp,Other,Normal,self,No,n,n,1,771
11,21,right,female,2,41,他人,SqrB.bmp,Other,Bad,other,Yes,m,m,1,703
11,21,right,female,2,42,他人,SqrN.bmp,Other,Normal,other,Yes,m,m,1,744
11,21,right,female,2,43,自己,CirN.bmp,Self,Normal,self,Yes,m,m,1,598
11,21,right,female,2,44,他人,CirB.bmp,Self,Bad,other,No,n,n,1,618
11,21,right,female,2,45,他人,CirG.bmp,Self,Good,other,No,n,n,1,666
11,21,right,female,2,46,他人,CirN.bmp,Self,Normal,other,No,n,n,1,742
11,21,right,female,2,47,他人,SqrG.bmp,Other,Good,other,Yes,m,m,1,658
11,21,right,female,2,48,自己,SqrG.bmp,Other,Good,self,No,n,n,1,748
11,21,right,female,2,49,自己,SqrG.bmp,Other,Good,self,No,n,n,1,714
11,21,right,female,2,50,他人,CirB.bmp,Self,Bad,other,No,n,n,1,741
11,21,right,female,2,51,他人,SqrN.bmp,Other,Normal,other,Yes,m,m,1,807
11,21,right,female,2,52,自己,SqrB.bmp,Other,Bad,self,No,n,n,1,691
11,21,right,female,2,53,自己,CirN.bmp,Self,Normal,self,Yes,m,m,1,605
11,21,right,female,2,54,自己,CirB.bmp,Self,Bad,self,Yes,m,m,1,605
11,21,right,female,2,55,他人,SqrG.bmp,Other,Good,other,Yes,n,m,0,781
11,21,right,female,2,56,自己,SqrN.bmp,Other,Normal,self,No,n,n,1,755
11,21,right,female,2,57,他人,SqrB.bmp,Other,Bad,other,Yes,m,m,1,872
11,21,right,female,2,58,他人,CirN.bmp,Self,Normal,other,No,n,n,1,664
11,21,right,female,2,59,他人,CirG.bmp,Self,Good,other,No,m,n,0,1008
11,21,right,female,2,60,自己,CirG.bmp,Self,Good,self,Yes,m,m,1,870
11,21,right,female,3,1,自己,CirG.bmp,Self,Good,self,Yes,m,m,1,642
11,21,right,female,3,2,他人,SqrB.bmp,Other,Bad,other,Yes,m,m,1,742
11,21,right,female,3,3,自己,CirN.bmp,Self,Normal,self,Yes,m,m,1,613
11,21,right,female,3,4,自己,SqrB.bmp,Other,Bad,self,No,n,n,1,723
11,21,right,female,3,5,他人,CirG.bmp,Self,Good,other,No,n,n,1,919
11,21,right,female,3,6,他人,CirB.bmp,Self,Bad,other,No,n,n,1,581
11,21,right,female,3,7,他人,CirN.bmp,Self,Normal,other,No,n,n,1,693
11,21,right,female,3,8,自己,CirB.bmp,Self,Bad,self,Yes,m,m,1,517
11,21,right,female,3,9,他人,SqrG.bmp,Other,Good,other,Yes,n,m,0,911
11,21,right,female,3,10,他人,SqrN.bmp,Other,Normal,other,Yes,m,m,1,675
11,21,right,female,3,11,自己,SqrG.bmp,Other,Good,self,No,n,n,1,741
11,21,right,female,3,12,自己,SqrN.bmp,Other,Normal,self,No,n,n,1,692
11,21,right,female,3,13,自己,CirB.bmp,Self,Bad,self,Yes,m,m,1,550
11,21,right,female,3,14,他人,SqrG.bmp,Other,Good,other,Yes,m,m,1,724
11,21,right,female,3,15,自己,SqrB.bmp,Other,Bad,self,No,n,n,1,687
11,21,right,female,3,16,自己,CirG.bmp,Self,Good,self,Yes,m,m,1,533
11,21,right,female,3,17,他人,SqrB.bmp,Other,Bad,other,Yes,m,m,1,959
11,21,right,female,3,18,自己,SqrN.bmp,Other,Normal,self,No,n,n,1,827
11,21,right,female,3,19,他人,CirG.bmp,Self,Good,other,No,n,n,1,711
11,21,right,female,3,20,他人,CirB.bmp,Self,Bad,other,No,m,n,0,890
11,21,right,female,3,21,自己,CirN.bmp,Self,Normal,self,Yes,m,m,1,718
11,21,right,female,3,22,自己,SqrG.bmp,Other,Good,self,No,n,n,1,662
11,21,right,female,3,23,他人,CirN.bmp,Self,Normal,other,No,n,n,1,836
11,21,right,female,3,24,他人,SqrN.bmp,Other,Normal,other,Yes,n,m,0,772
11,21,right,female,3,25,自己,CirB.bmp,Self,Bad,self,Yes,m,m,1,634
11,21,right,female,3,26,自己,SqrB.bmp,Other,Bad,self,No,n,n,1,758
11,21,right,female,3,27,自己,CirN.bmp,Self,Normal,self,Yes,m,m,1,638
11,21,right,female,3,28,自己,CirG.bmp,Self,Good,self,Yes,m,m,1,666
11,21,right,female,3,29,自己,SqrG.bmp,Other,Good,self,No,,n,0,0
11,21,right,female,3,30,他人,SqrN.bmp,Other,Normal,other,Yes,n,m,0,201
11,21,right,female,3,31,他人,SqrB.bmp,Other,Bad,other,Yes,m,m,1,655
11,21,right,female,3,32,他人,CirG.bmp,Self,Good,other,No,n,n,1,735
11,21,right,female,3,33,自己,SqrN.bmp,Other,Normal,self,No,n,n,1,799
11,21,right,female,3,34,他人,CirN.bmp,Self,Normal,other,No,n,n,1,629
11,21,right,female,3,35,他人,CirB.bmp,Self,Bad,other,No,n,n,1,549
11,21,right,female,3,36,他人,SqrG.bmp,Other,Good,other,Yes,m,m,1,841
11,21,right,female,3,37,他人,SqrN.bmp,Other,Normal,other,Yes,m,m,1,874
11,21,right,female,3,38,他人,SqrB.bmp,Other,Bad,other,Yes,m,m,1,630
11,21,right,female,3,39,自己,CirB.bmp,Self,Bad,self,Yes,m,m,1,684
11,21,right,female,3,40,自己,CirG.bmp,Self,Good,self,Yes,m,m,1,574
11,21,right,female,3,41,他人,CirB.bmp,Self,Bad,other,No,m,n,0,612
11,21,right,female,3,42,自己,CirN.bmp,Self,Normal,self,Yes,m,m,1,726
11,21,right,female,3,43,他人,CirN.bmp,Self,Normal,other,No,n,n,1,704
11,21,right,female,3,44,他人,CirG.bmp,Self,Good,other,No,,n,0,0
11,21,right,female,3,45,自己,SqrG.bmp,Other,Good,self,No,,n,0,0
11,21,right,female,3,46,自己,SqrN.bmp,Other,Normal,self,No,m,n,0,779
11,21,right,female,3,47,自己,SqrB.bmp,Other,Bad,self,No,,n,0,0
11,21,right,female,3,48,他人,SqrG.bmp,Other,Good,other,Yes,n,m,0,777
11,21,right,female,3,49,他人,CirB.bmp,Self,Bad,other,No,n,n,1,1059
11,21,right,female,3,50,自己,CirB.bmp,Self,Bad,self,Yes,m,m,1,585
11,21,right,female,3,51,自己,SqrN.bmp,Other,Normal,self,No,n,n,1,749
11,21,right,female,3,52,他人,SqrB.bmp,Other,Bad,other,Yes,m,m,1,703
11,21,right,female,3,53,他人,CirN.bmp,Self,Normal,other,No,n,n,1,890
11,21,right,female,3,54,自己,SqrB.bmp,Other,Bad,self,No,n,n,1,627
11,21,right,female,3,55,自己,CirG.bmp,Self,Good,self,Yes,m,m,1,665
11,21,right,female,3,56,自己,SqrG.bmp,Other,Good,self,No,n,n,1,691
11,21,right,female,3,57,他人,SqrG.bmp,Other,Good,other,Yes,m,m,1,811
11,21,right,female,3,58,他人,SqrN.bmp,Other,Normal,other,Yes,m,m,1,585
11,21,right,female,3,59,他人,CirG.bmp,Self,Good,other,No,n,n,1,661
11,21,right,female,3,60,自己,CirN.bmp,Self,Normal,self,Yes,m,m,1,705
11,21,right,female,4,1,他人,CirB.bmp,Self,Bad,other,No,n,n,1,726
11,21,right,female,4,2,自己,CirN.bmp,Self,Normal,self,Yes,m,m,1,891
11,21,right,female,4,3,他人,SqrN.bmp,Other,Normal,other,Yes,m,m,1,849
11,21,right,female,4,4,他人,SqrB.bmp,Other,Bad,other,Yes,m,m,1,695
11,21,right,female,4,5,自己,SqrG.bmp,Other,Good,self,No,n,n,1,857
11,21,right,female,4,6,自己,CirG.bmp,Self,Good,self,Yes,m,m,1,617
11,21,right,female,4,7,他人,SqrG.bmp,Other,Good,other,Yes,m,m,1,853
11,21,right,female,4,8,他人,CirG.bmp,Self,Good,other,No,n,n,1,725
11,21,right,female,4,9,自己,CirB.bmp,Self,Bad,self,Yes,m,m,1,589
11,21,right,female,4,10,自己,SqrN.bmp,Other,Normal,self,No,n,n,1,877
11,21,right,female,4,11,他人,CirN.bmp,Self,Normal,other,No,n,n,1,851
11,21,right,female,4,12,自己,SqrB.bmp,Other,Bad,self,No,n,n,1,754
11,21,right,female,4,13,他人,SqrB.bmp,Other,Bad,other,Yes,m,m,1,676
11,21,right,female,4,14,他人,SqrN.bmp,Other,Normal,other,Yes,m,m,1,658
11,21,right,female,4,15,自己,CirB.bmp,Self,Bad,self,Yes,m,m,1,764
11,21,right,female,4,16,自己,CirG.bmp,Self,Good,self,Yes,m,m,1,656
11,21,right,female,4,17,他人,CirB.bmp,Self,Bad,other,No,n,n,1,654
11,21,right,female,4,18,自己,SqrG.bmp,Other,Good,self,No,,n,0,0
11,21,right,female,4,19,他人,CirG.bmp,Self,Good,other,No,n,n,1,1088
11,21,right,female,4,20,他人,SqrG.bmp,Other,Good,other,Yes,m,m,1,783
11,21,right,female,4,21,自己,SqrN.bmp,Other,Normal,self,No,n,n,1,659
11,21,right,female,4,22,自己,SqrB.bmp,Other,Bad,self,No,n,n,1,647
11,21,right,female,4,23,自己,CirN.bmp,Self,Normal,self,Yes,m,m,1,519
11,21,right,female,4,24,他人,CirN.bmp,Self,Normal,other,No,n,n,1,731
11,21,right,female,4,25,他人,CirG.bmp,Self,Good,other,No,n,n,1,663
11,21,right,female,4,26,自己,SqrG.bmp,Other,Good,self,No,n,n,1,706
11,21,right,female,4,27,自己,CirG.bmp,Self,Good,self,Yes,m,m,1,682
11,21,right,female,4,28,自己,CirB.bmp,Self,Bad,self,Yes,m,m,1,689
11,21,right,female,4,29,他人,CirN.bmp,Self,Normal,other,No,n,n,1,723
11,21,right,female,4,30,他人,SqrG.bmp,Other,Good,other,Yes,m,m,1,925
11,21,right,female,4,31,自己,SqrN.bmp,Other,Normal,self,No,n,n,1,801
11,21,right,female,4,32,自己,SqrB.bmp,Other,Bad,self,No,n,n,1,757
11,21,right,female,4,33,他人,SqrB.bmp,Other,Bad,other,Yes,n,m,0,743
11,21,right,female,4,34,他人,CirB.bmp,Self,Bad,other,No,n,n,1,753
11,21,right,female,4,35,自己,CirN.bmp,Self,Normal,self,Yes,m,m,1,617
11,21,right,female,4,36,他人,SqrN.bmp,Other,Normal,other,Yes,m,m,1,973
11,21,right,female,4,37,自己,SqrB.bmp,Other,Bad,self,No,n,n,1,720
11,21,right,female,4,38,他人,SqrN.bmp,Other,Normal,other,Yes,m,m,1,759
11,21,right,female,4,39,他人,CirB.bmp,Self,Bad,other,No,n,n,1,734
11,21,right,female,4,40,他人,SqrB.bmp,Other,Bad,other,Yes,m,m,1,748
11,21,right,female,4,41,自己,CirN.bmp,Self,Normal,self,Yes,m,m,1,718
11,21,right,female,4,42,自己,CirG.bmp,Self,Good,self,Yes,m,m,1,756
11,21,right,female,4,43,他人,SqrG.bmp,Other,Good,other,Yes,m,m,1,882
11,21,right,female,4,44,自己,SqrG.bmp,Other,Good,self,No,n,n,1,840
11,21,right,female,4,45,自己,CirB.bmp,Self,Bad,self,Yes,m,m,1,894
11,21,right,female,4,46,他人,CirN.bmp,Self,Normal,other,No,n,n,1,801
11,21,right,female,4,47,他人,CirG.bmp,Self,Good,other,No,n,n,1,961
11,21,right,female,4,48,自己,SqrN.bmp,Other,Normal,self,No,n,n,1,1093
11,21,right,female,4,49,他人,CirN.bmp,Self,Normal,other,No,n,n,1,799
11,21,right,female,4,50,自己,SqrG.bmp,Other,Good,self,No,n,n,1,779
11,21,right,female,4,51,他人,CirB.bmp,Self,Bad,other,No,n,n,1,907
11,21,right,female,4,52,自己,CirN.bmp,Self,Normal,self,Yes,m,m,1,765
11,21,right,female,4,53,他人,SqrB.bmp,Other,Bad,other,Yes,m,m,1,705
11,21,right,female,4,54,他人,SqrG.bmp,Other,Good,other,Yes,m,m,1,684
11,21,right,female,4,55,他人,SqrN.bmp,Other,Normal,other,Yes,m,m,1,747
11,21,right,female,4,56,自己,CirG.bmp,Self,Good,self,Yes,m,m,1,818
11,21,right,female,4,57,他人,CirG.bmp,Self,Good,other,No,n,n,1,838
11,21,right,female,4,58,自己,SqrB.bmp,Other,Bad,self,No,m,n,0,836
11,21,right,female,4,59,自己,CirB.bmp,Self,Bad,self,Yes,m,m,1,1002
11,21,right,female,4,60,自己,SqrN.bmp,Other,Normal,self,No,n,n,1,956
11,21,right,female,5,1,他人,CirN.bmp,Self,Normal,other,No,n,n,1,711
11,21,right,female,5,2,他人,SqrG.bmp,Other,Good,other,Yes,m,m,1,897
11,21,right,female,5,3,他人,CirG.bmp,Self,Good,other,No,n,n,1,717
11,21,right,female,5,4,自己,CirN.bmp,Self,Normal,self,Yes,m,m,1,615
11,21,right,female,5,5,他人,CirB.bmp,Self,Bad,other,No,n,n,1,809
11,21,right,female,5,6,自己,SqrG.bmp,Other,Good,self,No,n,n,1,741
11,21,right,female,5,7,他人,SqrN.bmp,Other,Normal,other,Yes,m,m,1,723
11,21,right,female,5,8,自己,CirG.bmp,Self,Good,self,Yes,m,m,1,607
11,21,right,female,5,9,自己,SqrB.bmp,Other,Bad,self,No,n,n,1,932
11,21,right,female,5,10,他人,SqrB.bmp,Other,Bad,other,Yes,n,m,0,598
11,21,right,female,5,11,自己,SqrN.bmp,Other,Normal,self,No,n,n,1,856
11,21,right,female,5,12,自己,CirB.bmp,Self,Bad,self,Yes,m,m,1,776
11,21,right,female,5,13,他人,CirB.bmp,Self,Bad,other,No,n,n,1,864
11,21,right,female,5,14,他人,CirG.bmp,Self,Good,other,No,n,n,1,810
11,21,right,female,5,15,他人,CirN.bmp,Self,Normal,other,No,n,n,1,704
11,21,right,female,5,16,自己,CirN.bmp,Self,Normal,self,Yes,m,m,1,790
11,21,right,female,5,17,他人,SqrG.bmp,Other,Good,other,Yes,m,m,1,913
11,21,right,female,5,18,自己,SqrN.bmp,Other,Normal,self,No,n,n,1,849
11,21,right,female,5,19,他人,SqrB.bmp,Other,Bad,other,Yes,m,m,1,967
11,21,right,female,5,20,自己,SqrB.bmp,Other,Bad,self,No,,n,0,0
11,21,right,female,5,21,自己,SqrG.bmp,Other,Good,self,No,n,n,1,1027
11,21,right,female,5,22,自己,CirG.bmp,Self,Good,self,Yes,m,m,1,783
11,21,right,female,5,23,自己,CirB.bmp,Self,Bad,self,Yes,m,m,1,673
11,21,right,female,5,24,他人,SqrN.bmp,Other,Normal,other,Yes,m,m,1,779
11,21,right,female,5,25,自己,SqrN.bmp,Other,Normal,self,No,n,n,1,785
11,21,right,female,5,26,他人,CirG.bmp,Self,Good,other,No,n,n,1,1034
11,21,right,female,5,27,他人,CirB.bmp,Self,Bad,other,No,n,n,1,740
11,21,right,female,5,28,自己,CirB.bmp,Self,Bad,self,Yes,m,m,1,518
11,21,right,female,5,29,自己,CirG.bmp,Self,Good,self,Yes,m,m,1,768
11,21,right,female,5,30,他人,SqrG.bmp,Other,Good,other,Yes,m,m,1,704
11,21,right,female,5,31,他人,CirN.bmp,Self,Normal,other,No,n,n,1,756
11,21,right,female,5,32,自己,SqrB.bmp,Other,Bad,self,No,n,n,1,868
11,21,right,female,5,33,他人,SqrN.bmp,Other,Normal,other,Yes,m,m,1,795
11,21,right,female,5,34,自己,SqrG.bmp,Other,Good,self,No,n,n,1,1006
11,21,right,female,5,35,他人,SqrB.bmp,Other,Bad,other,Yes,m,m,1,758
11,21,right,female,5,36,自己,CirN.bmp,Self,Normal,self,Yes,m,m,1,682
11,21,right,female,5,37,自己,CirN.bmp,Self,Normal,self,Yes,m,m,1,682
11,21,right,female,5,38,他人,CirN.bmp,Self,Normal,other,No,n,n,1,706
11,21,right,female,5,39,自己,CirB.bmp,Self,Bad,self,Yes,m,m,1,798
11,21,right,female,5,40,自己,CirG.bmp,Self,Good,self,Yes,m,m,1,570
11,21,right,female,5,41,自己,SqrG.bmp,Other,Good,self,No,n,n,1,658
11,21,right,female,5,42,自己,SqrB.bmp,Other,Bad,self,No,n,n,1,774
11,21,right,female,5,43,他人,CirB.bmp,Self,Bad,other,No,n,n,1,767
11,21,right,female,5,44,自己,SqrN.bmp,Other,Normal,self,No,n,n,1,883
11,21,right,female,5,45,他人,SqrN.bmp,Other,Normal,other,Yes,m,m,1,725
11,21,right,female,5,46,他人,SqrB.bmp,Other,Bad,other,Yes,m,m,1,617
11,21,right,female,5,47,他人,CirG.bmp,Self,Good,other,No,n,n,1,785
11,21,right,female,5,48,他人,SqrG.bmp,Other,Good,other,Yes,n,m,0,763
11,21,right,female,5,49,自己,CirG.bmp,Self,Good,self,Yes,m,m,1,665
11,21,right,female,5,50,他人,SqrN.bmp,Other,Normal,other,Yes,m,m,1,669
11,21,right,female,5,51,他人,SqrG.bmp,Other,Good,other,Yes,m,m,1,673
11,21,right,female,5,52,他人,SqrB.bmp,Other,Bad,other,Yes,m,m,1,577
11,21,right,female,5,53,他人,CirG.bmp,Self,Good,other,No,n,n,1,668
11,21,right,female,5,54,自己,CirN.bmp,Self,Normal,self,Yes,m,m,1,634
11,21,right,female,5,55,自己,CirB.bmp,Self,Bad,self,Yes,m,m,1,688
11,21,right,female,5,56,他人,CirN.bmp,Self,Normal,other,No,n,n,1,668
11,21,right,female,5,57,自己,SqrN.bmp,Other,Normal,self,No,n,n,1,828
11,21,right,female,5,58,自己,SqrB.bmp,Other,Bad,self,No,n,n,1,704
11,21,right,female,5,59,他人,CirB.bmp,Self,Bad,other,No,m,n,0,714
11,21,right,female,5,60,自己,SqrG.bmp,Other,Good,self,No,n,n,1,780
11,21,right,female,6,1,他人,SqrB.bmp,Other,Bad,other,Yes,m,m,1,761
11,21,right,female,6,2,自己,CirN.bmp,Self,Normal,self,Yes,m,m,1,1095
11,21,right,female,6,3,自己,CirB.bmp,Self,Bad,self,Yes,n,m,0,739
11,21,right,female,6,4,自己,SqrG.bmp,Other,Good,self,No,n,n,1,866
11,21,right,female,6,5,他人,SqrN.bmp,Other,Normal,other,Yes,m,m,1,678
11,21,right,female,6,6,自己,CirG.bmp,Self,Good,self,Yes,m,m,1,722
11,21,right,female,6,7,他人,SqrG.bmp,Other,Good,other,Yes,m,m,1,778
11,21,right,female,6,8,他人,CirG.bmp,Self,Good,other,No,n,n,1,692
11,21,right,female,6,9,他人,CirB.bmp,Self,Bad,other,No,n,n,1,912
11,21,right,female,6,10,他人,CirN.bmp,Self,Normal,other,No,n,n,1,614
11,21,right,female,6,11,自己,SqrN.bmp,Other,Normal,self,No,n,n,1,883
11,21,right,female,6,12,自己,SqrB.bmp,Other,Bad,self,No,n,n,1,703
11,21,right,female,6,13,他人,CirB.bmp,Self,Bad,other,No,n,n,1,761
11,21,right,female,6,14,自己,SqrB.bmp,Other,Bad,self,No,n,n,1,867
11,21,right,female,6,15,自己,CirG.bmp,Self,Good,self,Yes,m,m,1,765
11,21,right,female,6,16,他人,SqrB.bmp,Other,Bad,other,Yes,m,m,1,755
11,21,right,female,6,17,他人,SqrN.bmp,Other,Normal,other,Yes,m,m,1,855
11,21,right,female,6,18,他人,CirG.bmp,Self,Good,other,No,n,n,1,721
11,21,right,female,6,19,他人,SqrG.bmp,Other,Good,other,Yes,m,m,1,743
11,21,right,female,6,20,他人,CirN.bmp,Self,Normal,other,No,n,n,1,666
11,21,right,female,6,21,自己,CirN.bmp,Self,Normal,self,Yes,m,m,1,582
11,21,right,female,6,22,自己,SqrN.bmp,Other,Normal,self,No,n,n,1,682
11,21,right,female,6,23,自己,SqrG.bmp,Other,Good,self,No,n,n,1,624
11,21,right,female,6,24,自己,CirB.bmp,Self,Bad,self,Yes,m,m,1,620
11,21,right,female,6,25,他人,SqrB.bmp,Other,Bad,other,Yes,m,m,1,676
11,21,right,female,6,26,他人,SqrN.bmp,Other,Normal,other,Yes,m,m,1,664
11,21,right,female,6,27,他人,CirN.bmp,Self,Normal,other,No,n,n,1,856
11,21,right,female,6,28,自己,SqrN.bmp,Other,Normal,self,No,n,n,1,961
11,21,right,female,6,29,自己,CirN.bmp,Self,Normal,self,Yes,m,m,1,649
11,21,right,female,6,30,自己,CirG.bmp,Self,Good,self,Yes,m,m,1,655
11,21,right,female,6,31,他人,SqrG.bmp,Other,Good,other,Yes,m,m,1,821
11,21,right,female,6,32,自己,SqrG.bmp,Other,Good,self,No,n,n,1,759
11,21,right,female,6,33,自己,CirB.bmp,Self,Bad,self,Yes,m,m,1,717
11,21,right,female,6,34,他人,CirG.bmp,Self,Good,other,No,n,n,1,897
11,21,right,female,6,35,自己,SqrB.bmp,Other,Bad,self,No,m,n,0,765
11,21,right,female,6,36,他人,CirB.bmp,Self,Bad,other,No,n,n,1,825
11,21,right,female,6,37,他人,SqrG.bmp,Other,Good,other,Yes,,m,0,0
11,21,right,female,6,38,他人,CirG.bmp,Self,Good,other,No,n,n,1,707
11,21,right,female,6,39,他人,SqrN.bmp,Other,Normal,other,Yes,m,m,1,759
11,21,right,female,6,40,自己,SqrG.bmp,Other,Good,self,No,n,n,1,721
11,21,right,female,6,41,自己,SqrN.bmp,Other,Normal,self,No,n,n,1,851
11,21,right,female,6,42,他人,CirB.bmp,Self,Bad,other,No,n,n,1,843
11,21,right,female,6,43,他人,CirN.bmp,Self,Normal,other,No,n,n,1,609
11,21,right,female,6,44,自己,SqrB.bmp,Other,Bad,self,No,n,n,1,823
11,21,right,female,6,45,自己,CirB.bmp,Self,Bad,self,Yes,m,m,1,705
11,21,right,female,6,46,他人,SqrB.bmp,Other,Bad,other,Yes,m,m,1,736
11,21,right,female,6,47,自己,CirG.bmp,Self,Good,self,Yes,n,m,0,804
11,21,right,female,6,48,自己,CirN.bmp,Self,Normal,self,Yes,m,m,1,672
11,21,right,female,6,49,自己,CirB.bmp,Self,Bad,self,Yes,m,m,1,480
11,21,right,female,6,50,他人,CirG.bmp,Self,Good,other,No,m,n,0,534
11,21,right,female,6,51,他人,SqrG.bmp,Other,Good,other,Yes,n,m,0,978
11,21,right,female,6,52,他人,CirN.bmp,Self,Normal,other,No,,n,0,0
11,21,right,female,6,53,自己,SqrG.bmp,Other,Good,self,No,n,n,1,810
11,21,right,female,6,54,他人,CirB.bmp,Self,Bad,other,No,n,n,1,874
11,21,right,female,6,55,自己,CirN.bmp,Self,Normal,self,Yes,m,m,1,639
11,21,right,female,6,56,他人,SqrN.bmp,Other,Normal,other,Yes,m,m,1,881
11,21,right,female,6,57,自己,CirG.bmp,Self,Good,self,Yes,n,m,0,689
11,21,right,female,6,58,他人,SqrB.bmp,Other,Bad,other,Yes,m,m,1,855
11,21,right,female,6,59,自己,SqrN.bmp,Other,Normal,self,No,n,n,1,767
11,21,right,female,6,60,自己,SqrB.bmp,Other,Bad,self,No,n,n,1,1015
12,18,right,female,,1,他人,CirN.bmp,Other,Normal,other,Yes,n,n,1,751
12,18,right,female,,2,他人,SqrG.bmp,Self,Good,other,No,n,m,0,710
12,18,right,female,,3,自己,SqrN.bmp,Self,Normal,self,Yes,n,n,1,702
12,18,right,female,,4,自己,CirG.bmp,Other,Good,self,No,m,m,1,592
12,18,right,female,,5,他人,CirB.bmp,Other,Bad,other,Yes,m,n,0,624
12,18,right,female,,6,自己,CirN.bmp,Other,Normal,self,No,m,m,1,894
12,18,right,female,,7,自己,SqrG.bmp,Self,Good,self,Yes,n,n,1,1070
12,18,right,female,,8,自己,SqrB.bmp,Self,Bad,self,Yes,n,n,1,576
12,18,right,female,,9,自己,CirB.bmp,Other,Bad,self,No,m,m,1,484
12,18,right,female,,10,他人,SqrN.bmp,Self,Normal,other,No,n,m,0,938
12,18,right,female,,11,他人,CirG.bmp,Other,Good,other,Yes,n,n,1,792
12,18,right,female,,12,他人,SqrB.bmp,Self,Bad,other,No,m,m,1,513
12,18,right,female,,13,他人,CirG.bmp,Other,Good,other,Yes,n,n,1,733
12,18,right,female,,14,他人,CirN.bmp,Other,Normal,other,Yes,n,n,1,619
12,18,right,female,,15,他人,SqrG.bmp,Self,Good,other,No,n,m,0,373
12,18,right,female,,16,自己,CirN.bmp,Other,Normal,self,No,n,m,0,633
12,18,right,female,,17,自己,SqrB.bmp,Self,Bad,self,Yes,m,n,0,477
12,18,right,female,,18,自己,CirG.bmp,Other,Good,self,No,n,m,0,491
12,18,right,female,,19,自己,CirB.bmp,Other,Bad,self,No,n,m,0,683
12,18,right,female,,20,自己,SqrG.bmp,Self,Good,self,Yes,n,n,1,939
12,18,right,female,,21,自己,SqrN.bmp,Self,Normal,self,Yes,n,n,1,594
12,18,right,female,,22,他人,SqrB.bmp,Self,Bad,other,No,n,m,0,502
12,18,right,female,,23,他人,CirB.bmp,Other,Bad,other,Yes,m,n,0,858
12,18,right,female,,24,他人,SqrN.bmp,Self,Normal,other,No,,m,0,0
12,18,right,female,,25,他人,SqrN.bmp,Self,Normal,other,No,,m,0,0
12,18,right,female,,26,自己,SqrB.bmp,Self,Bad,self,Yes,m,n,0,620
12,18,right,female,,27,他人,SqrG.bmp,Self,Good,other,No,,m,0,0
12,18,right,female,,28,自己,SqrN.bmp,Self,Normal,self,Yes,m,n,0,577
12,18,right,female,,29,自己,CirB.bmp,Other,Bad,self,No,,m,0,0
12,18,right,female,,30,自己,SqrG.bmp,Self,Good,self,Yes,n,n,1,799
12,18,right,female,,31,他人,CirB.bmp,Other,Bad,other,Yes,m,n,0,577
12,18,right,female,,32,自己,CirG.bmp,Other,Good,self,No,n,m,0,873
12,18,right,female,,33,他人,SqrB.bmp,Self,Bad,other,No,m,m,1,841
12,18,right,female,,34,他人,CirG.bmp,Other,Good,other,Yes,m,n,0,663
12,18,right,female,,35,自己,CirN.bmp,Other,Normal,self,No,n,m,0,674
12,18,right,female,,36,他人,CirN.bmp,Other,Normal,other,Yes,,n,0,0
12,18,right,female,,37,自己,CirN.bmp,Other,Normal,self,No,m,m,1,561
12,18,right,female,,38,他人,SqrG.bmp,Self,Good,other,No,n,m,0,639
12,18,right,female,,39,自己,CirG.bmp,Other,Good,self,No,n,m,0,565
12,18,right,female,,40,自己,SqrG.bmp,Self,Good,self,Yes,n,n,1,687
12,18,right,female,,41,自己,CirB.bmp,Other,Bad,self,No,n,m,0,641
12,18,right,female,,42,自己,SqrN.bmp,Self,Normal,self,Yes,n,n,1,631
12,18,right,female,,43,他人,CirN.bmp,Other,Normal,other,Yes,m,n,0,723
12,18,right,female,,44,他人,CirG.bmp,Other,Good,other,Yes,n,n,1,502
12,18,right,female,,45,他人,SqrB.bmp,Self,Bad,other,No,m,m,1,592
12,18,right,female,,46,他人,CirB.bmp,Other,Bad,other,Yes,m,n,0,788
12,18,right,female,,47,他人,SqrN.bmp,Self,Normal,other,No,m,m,1,786
12,18,right,female,,48,自己,SqrB.bmp,Self,Bad,self,Yes,n,n,1,818
12,18,right,female,,49,自己,CirN.bmp,Other,Normal,self,No,n,m,0,709
12,18,right,female,,50,自己,SqrB.bmp,Self,Bad,self,Yes,n,n,1,529
12,18,right,female,,51,他人,CirG.bmp,Other,Good,other,Yes,m,n,0,639
12,18,right,female,,52,自己,SqrG.bmp,Self,Good,self,Yes,,n,0,0
12,18,right,female,,53,他人,CirN.bmp,Other,Normal,other,Yes,m,n,0,601
12,18,right,female,,54,他人,SqrN.bmp,Self,Normal,other,No,,m,0,0
12,18,right,female,,55,他人,CirB.bmp,Other,Bad,other,Yes,n,n,1,587
12,18,right,female,,56,他人,SqrG.bmp,Self,Good,other,No,m,m,1,534
12,18,right,female,,57,自己,CirB.bmp,Other,Bad,self,No,n,m,0,446
12,18,right,female,,58,自己,CirG.bmp,Other,Good,self,No,m,m,1,760
12,18,right,female,,59,他人,SqrB.bmp,Self,Bad,other,No,m,m,1,633
12,18,right,female,,60,自己,SqrN.bmp,Self,Normal,self,Yes,m,n,0,437
12,18,right,female,,61,自己,CirG.bmp,Other,Good,self,No,n,m,0,649
12,18,right,female,,62,他人,CirB.bmp,Other,Bad,other,Yes,n,n,1,485
12,18,right,female,,63,他人,SqrN.bmp,Self,Normal,other,No,n,m,0,575
12,18,right,female,,64,他人,CirG.bmp,Other,Good,other,Yes,n,n,1,507
12,18,right,female,,65,自己,SqrG.bmp,Self,Good,self,Yes,m,n,0,325
12,18,right,female,,66,自己,SqrN.bmp,Self,Normal,self,Yes,n,n,1,548
12,18,right,female,,67,他人,SqrB.bmp,Self,Bad,other,No,n,m,0,420
12,18,right,female,,68,自己,CirB.bmp,Other,Bad,self,No,n,m,0,554
12,18,right,female,,69,他人,SqrG.bmp,Self,Good,other,No,n,m,0,474
12,18,right,female,,70,他人,CirN.bmp,Other,Normal,other,Yes,m,n,0,956
12,18,right,female,,71,自己,CirN.bmp,Other,Normal,self,No,n,m,0,522
12,18,right,female,,72,自己,SqrB.bmp,Self,Bad,self,Yes,n,n,1,714
12,18,right,female,,73,他人,CirB.bmp,Other,Bad,other,Yes,m,n,0,666
12,18,right,female,,74,他人,CirN.bmp,Other,Normal,other,Yes,m,n,0,811
12,18,right,female,,75,他人,CirG.bmp,Other,Good,other,Yes,n,n,1,989
12,18,right,female,,76,他人,SqrB.bmp,Self,Bad,other,No,,m,0,0
12,18,right,female,,77,自己,CirG.bmp,Other,Good,self,No,n,m,0,469
12,18,right,female,,78,他人,SqrG.bmp,Self,Good,other,No,m,m,1,941
12,18,right,female,,79,自己,SqrN.bmp,Self,Normal,self,Yes,n,n,1,923
12,18,right,female,,80,自己,SqrB.bmp,Self,Bad,self,Yes,n,n,1,552
12,18,right,female,,81,自己,CirB.bmp,Other,Bad,self,No,m,m,1,614
12,18,right,female,,82,自己,SqrG.bmp,Self,Good,self,Yes,m,n,0,522
12,18,right,female,,83,他人,SqrN.bmp,Self,Normal,other,No,m,m,1,536
12,18,right,female,,84,自己,CirN.bmp,Other,Normal,self,No,n,m,0,660
12,18,right,female,,85,自己,SqrB.bmp,Self,Bad,self,Yes,n,n,1,594
12,18,right,female,,86,自己,SqrG.bmp,Self,Good,self,Yes,n,n,1,544
12,18,right,female,,87,他人,SqrG.bmp,Self,Good,other,No,n,m,0,658
12,18,right,female,,88,他人,CirG.bmp,Other,Good,other,Yes,m,n,0,664
12,18,right,female,,89,他人,CirN.bmp,Other,Normal,other,Yes,m,n,0,857
12,18,right,female,,90,自己,CirB.bmp,Other,Bad,self,No,,m,0,0
12,18,right,female,,91,自己,CirG.bmp,Other,Good,self,No,,m,0,0
12,18,right,female,,92,他人,SqrN.bmp,Self,Normal,other,No,n,m,0,678
12,18,right,female,,93,自己,CirN.bmp,Other,Normal,self,No,n,m,0,530
12,18,right,female,,94,他人,CirB.bmp,Other,Bad,other,Yes,n,n,1,366
12,18,right,female,,95,自己,SqrN.bmp,Self,Normal,self,Yes,n,n,1,604
12,18,right,female,,96,他人,SqrB.bmp,Self,Bad,other,No,n,m,0,507
12,18,right,female,,97,他人,SqrN.bmp,Self,Normal,other,No,m,m,1,963
12,18,right,female,,98,自己,SqrG.bmp,Self,Good,self,Yes,n,n,1,653
12,18,right,female,,99,他人,CirN.bmp,Other,Normal,other,Yes,m,n,0,535
12,18,right,female,,100,他人,CirB.bmp,Other,Bad,other,Yes,,n,0,0
12,18,right,female,,101,自己,SqrB.bmp,Self,Bad,self,Yes,n,n,1,433
12,18,right,female,,102,自己,SqrN.bmp,Self,Normal,self,Yes,n,n,1,523
12,18,right,female,,103,自己,CirN.bmp,Other,Normal,self,No,n,m,0,442
12,18,right,female,,104,他人,CirG.bmp,Other,Good,other,Yes,m,n,0,514
12,18,right,female,,105,自己,CirB.bmp,Other,Bad,self,No,n,m,0,826
12,18,right,female,,106,他人,SqrB.bmp,Self,Bad,other,No,m,m,1,1000
12,18,right,female,,107,自己,CirG.bmp,Other,Good,self,No,m,m,1,848
12,18,right,female,,108,他人,SqrG.bmp,Self,Good,other,No,m,m,1,500
12,18,right,female,,109,自己,CirB.bmp,Other,Bad,self,No,n,m,0,500
12,18,right,female,,110,自己,SqrG.bmp,Self,Good,self,Yes,m,n,0,366
12,18,right,female,,111,自己,CirN.bmp,Other,Normal,self,No,m,m,1,912
12,18,right,female,,112,自己,SqrN.bmp,Self,Normal,self,Yes,n,n,1,691
12,18,right,female,,113,他人,CirB.bmp,Other,Bad,other,Yes,m,n,0,615
12,18,right,female,,114,他人,CirG.bmp,Other,Good,other,Yes,n,n,1,989
12,18,right,female,,115,他人,SqrB.bmp,Self,Bad,other,No,m,m,1,691
12,18,right,female,,116,他人,SqrG.bmp,Self,Good,other,No,n,m,0,687
12,18,right,female,,117,他人,CirN.bmp,Other,Normal,other,Yes,n,n,1,577
12,18,right,female,,118,自己,CirG.bmp,Other,Good,self,No,n,m,0,525
12,18,right,female,,119,他人,SqrN.bmp,Self,Normal,other,No,m,m,1,775
12,18,right,female,,120,自己,SqrB.bmp,Self,Bad,self,Yes,,n,0,0
12,18,right,female,,121,他人,CirN.bmp,Other,Normal,other,Yes,,n,0,0
12,18,right,female,,122,他人,CirB.bmp,Other,Bad,other,Yes,m,n,0,722
12,18,right,female,,123,自己,SqrG.bmp,Self,Good,self,Yes,n,n,1,686
12,18,right,female,,124,自己,CirN.bmp,Other,Normal,self,No,m,m,1,824
12,18,right,female,,125,自己,SqrB.bmp,Self,Bad,self,Yes,n,n,1,897
12,18,right,female,,126,自己,CirB.bmp,Other,Bad,self,No,n,m,0,798
12,18,right,female,,127,自己,SqrN.bmp,Self,Normal,self,Yes,n,n,1,666
12,18,right,female,,128,他人,SqrN.bmp,Self,Normal,other,No,m,m,1,520
12,18,right,female,,129,他人,SqrG.bmp,Self,Good,other,No,,m,0,0
12,18,right,female,,130,他人,CirG.bmp,Other,Good,other,Yes,m,n,0,740
12,18,right,female,,131,自己,CirG.bmp,Other,Good,self,No,n,m,0,450
12,18,right,female,,132,他人,SqrB.bmp,Self,Bad,other,No,m,m,1,732
12,18,right,female,,133,他人,SqrB.bmp,Self,Bad,other,No,m,m,1,458
12,18,right,female,,134,自己,SqrN.bmp,Self,Normal,self,Yes,n,n,1,628
12,18,right,female,,135,自己,CirN.bmp,Other,Normal,self,No,m,m,1,727
12,18,right,female,,136,自己,CirG.bmp,Other,Good,self,No,n,m,0,517
12,18,right,female,,137,他人,SqrN.bmp,Self,Normal,other,No,m,m,1,809
12,18,right,female,,138,他人,SqrG.bmp,Self,Good,other,No,m,m,1,823
12,18,right,female,,139,他人,CirG.bmp,Other,Good,other,Yes,n,n,1,715
12,18,right,female,,140,自己,CirB.bmp,Other,Bad,self,No,n,m,0,617
12,18,right,female,,141,他人,CirN.bmp,Other,Normal,other,Yes,,n,0,0
12,18,right,female,,142,他人,CirB.bmp,Other,Bad,other,Yes,m,n,0,654
12,18,right,female,,143,自己,SqrB.bmp,Self,Bad,self,Yes,n,n,1,552
12,18,right,female,,144,自己,SqrG.bmp,Self,Good,self,Yes,n,n,1,560
12,18,right,female,,145,自己,SqrG.bmp,Self,Good,self,Yes,n,n,1,394
12,18,right,female,,146,他人,CirB.bmp,Other,Bad,other,Yes,m,n,0,552
12,18,right,female,,147,他人,SqrB.bmp,Self,Bad,other,No,m,m,1,726
12,18,right,female,,148,自己,CirB.bmp,Other,Bad,self,No,n,m,0,486
12,18,right,female,,149,自己,CirG.bmp,Other,Good,self,No,n,m,0,486
12,18,right,female,,150,他人,CirG.bmp,Other,Good,other,Yes,m,n,0,589
12,18,right,female,,151,他人,CirN.bmp,Other,Normal,other,Yes,m,n,0,731
12,18,right,female,,152,他人,SqrN.bmp,Self,Normal,other,No,m,m,1,395
12,18,right,female,,153,他人,SqrG.bmp,Self,Good,other,No,m,m,1,811
12,18,right,female,,154,自己,SqrN.bmp,Self,Normal,self,Yes,n,n,1,1089
12,18,right,female,,155,自己,SqrB.bmp,Self,Bad,self,Yes,,n,0,0
12,18,right,female,,156,自己,CirN.bmp,Other,Normal,self,No,m,m,1,813
12,18,right,female,,157,自己,CirG.bmp,Other,Good,self,No,m,m,1,747
12,18,right,female,,158,自己,SqrB.bmp,Self,Bad,self,Yes,n,n,1,1056
12,18,right,female,,159,他人,SqrG.bmp,Self,Good,other,No,m,m,1,664
12,18,right,female,,160,自己,SqrG.bmp,Self,Good,self,Yes,n,n,1,778
12,18,right,female,,161,自己,CirB.bmp,Other,Bad,self,No,m,m,1,710
12,18,right,female,,162,自己,CirN.bmp,Other,Normal,self,No,m,m,1,885
12,18,right,female,,163,他人,CirB.bmp,Other,Bad,other,Yes,n,n,1,879
12,18,right,female,,164,自己,SqrN.bmp,Self,Normal,self,Yes,n,n,1,675
12,18,right,female,,165,他人,SqrB.bmp,Self,Bad,other,No,m,m,1,567
12,18,right,female,,166,他人,CirG.bmp,Other,Good,other,Yes,m,n,0,572
12,18,right,female,,167,他人,SqrN.bmp,Self,Normal,other,No,m,m,1,792
12,18,right,female,,168,他人,CirN.bmp,Other,Normal,other,Yes,n,n,1,554
12,18,right,female,1,1,自己,SqrN.bmp,Self,Normal,self,Yes,n,n,1,578
12,18,right,female,1,2,自己,SqrG.bmp,Self,Good,self,Yes,m,n,0,1033
12,18,right,female,1,3,他人,SqrN.bmp,Self,Normal,other,No,,m,0,0
12,18,right,female,1,4,自己,CirN.bmp,Other,Normal,self,No,n,m,0,603
12,18,right,female,1,5,他人,CirB.bmp,Other,Bad,other,Yes,,n,0,0
12,18,right,female,1,6,自己,CirG.bmp,Other,Good,self,No,,m,0,0
12,18,right,female,1,7,他人,SqrG.bmp,Self,Good,other,No,m,m,1,663
12,18,right,female,1,8,他人,CirG.bmp,Other,Good,other,Yes,n,n,1,1091
12,18,right,female,1,9,自己,CirB.bmp,Other,Bad,self,No,m,m,1,711
12,18,right,female,1,10,自己,SqrB.bmp,Self,Bad,self,Yes,n,n,1,567
12,18,right,female,1,11,他人,CirN.bmp,Other,Normal,other,Yes,m,n,0,657
12,18,right,female,1,12,他人,SqrB.bmp,Self,Bad,other,No,,m,0,0
12,18,right,female,1,13,自己,SqrB.bmp,Self,Bad,self,Yes,n,n,1,598
12,18,right,female,1,14,自己,CirB.bmp,Other,Bad,self,No,m,m,1,738
12,18,right,female,1,15,自己,SqrN.bmp,Self,Normal,self,Yes,n,n,1,508
12,18,right,female,1,16,他人,CirB.bmp,Other,Bad,other,Yes,n,n,1,1006
12,18,right,female,1,17,自己,SqrG.bmp,Self,Good,self,Yes,n,n,1,640
12,18,right,female,1,18,他人,SqrN.bmp,Self,Normal,other,No,,m,0,0
12,18,right,female,1,19,他人,SqrG.bmp,Self,Good,other,No,,m,0,0
12,18,right,female,1,20,他人,CirG.bmp,Other,Good,other,Yes,m,n,0,679
12,18,right,female,1,21,他人,CirN.bmp,Other,Normal,other,Yes,,n,0,0
12,18,right,female,1,22,他人,SqrB.bmp,Self,Bad,other,No,m,m,1,1063
12,18,right,female,1,23,自己,CirG.bmp,Other,Good,self,No,n,m,0,665
12,18,right,female,1,24,自己,CirN.bmp,Other,Normal,self,No,,m,0,0
12,18,right,female,1,25,他人,SqrB.bmp,Self,Bad,other,No,,m,0,0
12,18,right,female,1,26,他人,CirB.bmp,Other,Bad,other,Yes,n,n,1,629
12,18,right,female,1,27,他人,SqrN.bmp,Self,Normal,other,No,m,m,1,621
12,18,right,female,1,28,自己,CirN.bmp,Other,Normal,self,No,m,m,1,1023
12,18,right,female,1,29,他人,CirN.bmp,Other,Normal,other,Yes,m,n,0,817
12,18,right,female,1,30,自己,SqrN.bmp,Self,Normal,self,Yes,n,n,1,1051
12,18,right,female,1,31,自己,SqrB.bmp,Self,Bad,self,Yes,n,n,1,839
12,18,right,female,1,32,自己,CirG.bmp,Other,Good,self,No,,m,0,0
12,18,right,female,1,33,他人,SqrG.bmp,Self,Good,other,No,,m,0,0
12,18,right,female,1,34,他人,CirG.bmp,Other,Good,other,Yes,m,n,0,865
12,18,right,female,1,35,自己,SqrG.bmp,Self,Good,self,Yes,,n,0,0
12,18,right,female,1,36,自己,CirB.bmp,Other,Bad,self,No,m,m,1,682
12,18,right,female,1,37,他人,SqrB.bmp,Self,Bad,other,No,m,m,1,938
12,18,right,female,1,38,他人,SqrN.bmp,Self,Normal,other,No,m,m,1,824
12,18,right,female,1,39,自己,SqrB.bmp,Self,Bad,self,Yes,n,n,1,1046
12,18,right,female,1,40,他人,CirG.bmp,Other,Good,other,Yes,m,n,0,742
12,18,right,female,1,41,自己,CirN.bmp,Other,Normal,self,No,,m,0,0
12,18,right,female,1,42,自己,SqrG.bmp,Self,Good,self,Yes,n,n,1,750
12,18,right,female,1,43,自己,SqrN.bmp,Self,Normal,self,Yes,,n,0,0
12,18,right,female,1,44,他人,CirN.bmp,Other,Normal,other,Yes,,n,0,0
12,18,right,female,1,45,他人,SqrG.bmp,Self,Good,other,No,m,m,1,788
12,18,right,female,1,46,自己,CirB.bmp,Other,Bad,self,No,n,m,0,739
12,18,right,female,1,47,他人,CirB.bmp,Other,Bad,other,Yes,m,n,0,645
12,18,right,female,1,48,自己,CirG.bmp,Other,Good,self,No,m,m,1,743
12,18,right,female,1,49,他人,SqrB.bmp,Self,Bad,other,No,,m,0,0
12,18,right,female,1,50,自己,SqrG.bmp,Self,Good,self,Yes,n,n,1,113
12,18,right,female,1,51,自己,CirN.bmp,Other,Normal,self,No,m,m,1,767
12,18,right,female,1,52,他人,SqrN.bmp,Self,Normal,other,No,,m,0,0
12,18,right,female,1,53,他人,CirG.bmp,Other,Good,other,Yes,,n,0,0
