Subject,Age,Handedness,Sex,BlockList.Sample,SubTrial,Label,Target,Shape,Morality,Identity,YesNoResp,Target.RESP,Target.CRESP,Target.ACC,Target.RT
4141,19,right,female,,1,自己,SqrB.bmp,Other,Bad,Self,No,,m,0,0
4141,19,right,female,,2,他人,SqrG.bmp,Other,Good,Other,Yes,,n,0,0
4141,19,right,female,,3,他人,CirN.bmp,Self,Normal,Other,No,,m,0,0
4141,19,right,female,,4,他人,SqrB.bmp,Other,Bad,Other,Yes,,n,0,0
4141,19,right,female,,5,他人,CirG.bmp,Self,Good,Other,No,,m,0,0
4141,19,right,female,,6,他人,SqrN.bmp,Other,Normal,Other,Yes,,n,0,0
4141,19,right,female,,7,他人,CirB.bmp,Self,Bad,Other,No,,m,0,0
4141,19,right,female,,8,自己,CirB.bmp,Self,Bad,Self,Yes,,n,0,0
4141,19,right,female,,9,自己,SqrG.bmp,Other,Good,Self,No,,m,0,0
4141,19,right,female,,10,自己,CirG.bmp,Self,Good,Self,Yes,,n,0,0
4141,19,right,female,,11,自己,SqrN.bmp,Other,Normal,Self,No,n,m,0,267
4141,19,right,female,,12,自己,CirN.bmp,Self,Normal,Self,Yes,,n,0,0
4141,19,right,female,,13,自己,CirB.bmp,Self,Bad,Self,Yes,n,n,1,354
4141,19,right,female,,14,自己,SqrG.bmp,Other,Good,Self,No,n,m,0,493
4141,19,right,female,,15,自己,CirN.bmp,Self,Normal,Self,Yes,n,n,1,829
4141,19,right,female,,16,他人,SqrB.bmp,Other,Bad,Other,Yes,n,n,1,356
4141,19,right,female,,17,自己,SqrN.bmp,Other,Normal,Self,No,n,m,0,424
4141,19,right,female,,18,他人,CirN.bmp,Self,Normal,Other,No,m,m,1,454
4141,19,right,female,,19,他人,SqrG.bmp,Other,Good,Other,Yes,n,n,1,548
4141,19,right,female,,20,他人,CirB.bmp,Self,Bad,Other,No,n,m,0,444
4141,19,right,female,,21,他人,CirG.bmp,Self,Good,Other,No,n,m,0,600
4141,19,right,female,,22,自己,SqrB.bmp,Other,Bad,Self,No,m,m,1,653
4141,19,right,female,,23,他人,SqrN.bmp,Other,Normal,Other,Yes,m,n,0,861
4141,19,right,female,,24,自己,CirG.bmp,Self,Good,Self,Yes,,n,0,0
4141,19,right,female,,25,他人,SqrN.bmp,Other,Normal,Other,Yes,,n,0,0
4141,19,right,female,,26,他人,CirG.bmp,Self,Good,Other,No,,m,0,0
4141,19,right,female,,27,他人,CirB.bmp,Self,Bad,Other,No,n,m,0,678
4141,19,right,female,,28,自己,CirN.bmp,Self,Normal,Self,Yes,n,n,1,444
4141,19,right,female,,29,自己,CirB.bmp,Self,Bad,Self,Yes,n,n,1,442
4141,19,right,female,,30,他人,CirN.bmp,Self,Normal,Other,No,n,m,0,423
4141,19,right,female,,31,自己,CirG.bmp,Self,Good,Self,Yes,n,n,1,480
4141,19,right,female,,32,自己,SqrN.bmp,Other,Normal,Self,No,m,m,1,556
4141,19,right,female,,33,自己,SqrB.bmp,Other,Bad,Self,No,m,m,1,967
4141,19,right,female,,34,他人,SqrB.bmp,Other,Bad,Other,Yes,m,n,0,630
4141,19,right,female,,35,他人,SqrG.bmp,Other,Good,Other,Yes,m,n,0,749
4141,19,right,female,,36,自己,SqrG.bmp,Other,Good,Self,No,m,m,1,1026
4141,19,right,female,,37,自己,CirB.bmp,Self,Bad,Self,Yes,n,n,1,1019
4141,19,right,female,,38,他人,CirG.bmp,Self,Good,Other,No,,m,0,0
4141,19,right,female,,39,他人,CirN.bmp,Self,Normal,Other,No,m,m,1,1001
4141,19,right,female,,40,自己,CirN.bmp,Self,Normal,Self,Yes,m,n,0,410
4141,19,right,female,,41,他人,CirB.bmp,Self,Bad,Other,No,,m,0,0
4141,19,right,female,,42,自己,SqrB.bmp,Other,Bad,Self,No,n,m,0,597
4141,19,right,female,,43,他人,SqrN.bmp,Other,Normal,Other,Yes,m,n,0,65
4141,19,right,female,,44,自己,SqrG.bmp,Other,Good,Self,No,,m,0,0
4141,19,right,female,,45,他人,SqrB.bmp,Other,Bad,Other,Yes,,n,0,0
4141,19,right,female,,46,自己,CirG.bmp,Self,Good,Self,Yes,n,n,1,734
4141,19,right,female,,47,自己,SqrN.bmp,Other,Normal,Self,No,m,m,1,730
4141,19,right,female,,48,他人,SqrG.bmp,Other,Good,Other,Yes,m,n,0,627
4141,19,right,female,,49,他人,SqrB.bmp,Other,Bad,Other,Yes,n,n,1,655
4141,19,right,female,,50,自己,SqrN.bmp,Other,Normal,Self,No,n,m,0,463
4141,19,right,female,,51,自己,SqrB.bmp,Other,Bad,Self,No,m,m,1,466
4141,19,right,female,,52,他人,CirG.bmp,Self,Good,Other,No,m,m,1,400
4141,19,right,female,,53,自己,CirN.bmp,Self,Normal,Self,Yes,m,n,0,604
4141,19,right,female,,54,他人,CirN.bmp,Self,Normal,Other,No,,m,0,0
4141,19,right,female,,55,他人,SqrN.bmp,Other,Normal,Other,Yes,m,n,0,641
4141,19,right,female,,56,自己,CirB.bmp,Self,Bad,Self,Yes,n,n,1,469
4141,19,right,female,,57,自己,SqrG.bmp,Other,Good,Self,No,n,m,0,800
4141,19,right,female,,58,他人,SqrG.bmp,Other,Good,Other,Yes,n,n,1,794
4141,19,right,female,,59,他人,CirB.bmp,Self,Bad,Other,No,n,m,0,441
4141,19,right,female,,60,自己,CirG.bmp,Self,Good,Self,Yes,n,n,1,464
4141,19,right,female,,61,自己,CirG.bmp,Self,Good,Self,Yes,n,n,1,400
4141,19,right,female,,62,他人,SqrB.bmp,Other,Bad,Other,Yes,m,n,0,440
4141,19,right,female,,63,他人,CirG.bmp,Self,Good,Other,No,n,m,0,472
4141,19,right,female,,64,自己,CirN.bmp,Self,Normal,Self,Yes,n,n,1,720
4141,19,right,female,,65,自己,SqrG.bmp,Other,Good,Self,No,n,m,0,822
4141,19,right,female,,66,他人,CirN.bmp,Self,Normal,Other,No,m,m,1,766
4141,19,right,female,,67,自己,SqrB.bmp,Other,Bad,Self,No,n,m,0,781
4141,19,right,female,,68,自己,SqrN.bmp,Other,Normal,Self,No,n,m,0,1026
4141,19,right,female,,69,自己,CirB.bmp,Self,Bad,Self,Yes,m,n,0,411
4141,19,right,female,,70,他人,SqrG.bmp,Other,Good,Other,Yes,,n,0,0
4141,19,right,female,,71,他人,CirB.bmp,Self,Bad,Other,No,n,m,0,304
4141,19,right,female,,72,他人,SqrN.bmp,Other,Normal,Other,Yes,n,n,1,505
4141,19,right,female,,73,自己,CirN.bmp,Self,Normal,Self,Yes,n,n,1,456
4141,19,right,female,,74,自己,SqrN.bmp,Other,Normal,Self,No,,m,0,0
4141,19,right,female,,75,他人,SqrN.bmp,Other,Normal,Other,Yes,n,n,1,513
4141,19,right,female,,76,自己,SqrB.bmp,Other,Bad,Self,No,n,m,0,418
4141,19,right,female,,77,他人,CirN.bmp,Self,Normal,Other,No,n,m,0,1046
4141,19,right,female,,78,自己,CirB.bmp,Self,Bad,Self,Yes,n,n,1,742
4141,19,right,female,,79,他人,SqrG.bmp,Other,Good,Other,Yes,n,n,1,408
4141,19,right,female,,80,自己,CirG.bmp,Self,Good,Self,Yes,n,n,1,473
4141,19,right,female,,81,他人,CirB.bmp,Self,Bad,Other,No,n,m,0,642
4141,19,right,female,,82,他人,CirG.bmp,Self,Good,Other,No,n,m,0,898
4141,19,right,female,,83,他人,SqrB.bmp,Other,Bad,Other,Yes,,n,0,0
4141,19,right,female,,84,自己,SqrG.bmp,Other,Good,Self,No,m,m,1,856
4141,19,right,female,,85,他人,SqrG.bmp,Other,Good,Other,Yes,m,n,0,436
4141,19,right,female,,86,自己,CirG.bmp,Self,Good,Self,Yes,n,n,1,537
4141,19,right,female,,87,自己,CirN.bmp,Self,Normal,Self,Yes,n,n,1,459
4141,19,right,female,,88,他人,CirN.bmp,Self,Normal,Other,No,n,m,0,393
4141,19,right,female,,89,他人,SqrB.bmp,Other,Bad,Other,Yes,m,n,0,465
4141,19,right,female,,90,他人,CirG.bmp,Self,Good,Other,No,n,m,0,393
4141,19,right,female,,91,他人,CirB.bmp,Self,Bad,Other,No,m,m,1,911
4141,19,right,female,,92,自己,SqrN.bmp,Other,Normal,Self,No,n,m,0,1010
4141,19,right,female,,93,自己,SqrB.bmp,Other,Bad,Self,No,m,m,1,749
4141,19,right,female,,94,自己,SqrG.bmp,Other,Good,Self,No,m,m,1,355
4141,19,right,female,,95,他人,SqrN.bmp,Other,Normal,Other,Yes,,n,0,0
4141,19,right,female,,96,自己,CirB.bmp,Self,Bad,Self,Yes,m,n,0,279
4141,19,right,female,,97,他人,CirB.bmp,Self,Bad,Other,No,n,m,0,462
4141,19,right,female,,98,他人,SqrB.bmp,Other,Bad,Other,Yes,,n,0,0
4141,19,right,female,,99,自己,CirG.bmp,Self,Good,Self,Yes,m,n,0,953
4141,19,right,female,,100,自己,SqrG.bmp,Other,Good,Self,No,m,m,1,177
4141,19,right,female,,101,自己,CirN.bmp,Self,Normal,Self,Yes,m,n,0,346
4141,19,right,female,,102,他人,SqrG.bmp,Other,Good,Other,Yes,m,n,0,572
4141,19,right,female,,103,自己,SqrB.bmp,Other,Bad,Self,No,m,m,1,429
4141,19,right,female,,104,他人,CirG.bmp,Self,Good,Other,No,m,m,1,440
4141,19,right,female,,105,他人,SqrN.bmp,Other,Normal,Other,Yes,,n,0,0
4141,19,right,female,,106,自己,SqrN.bmp,Other,Normal,Self,No,n,m,0,541
4141,19,right,female,,107,自己,CirB.bmp,Self,Bad,Self,Yes,,n,0,0
4141,19,right,female,,108,他人,CirN.bmp,Self,Normal,Other,No,n,m,0,480
4141,19,right,female,,109,自己,CirB.bmp,Self,Bad,Self,Yes,m,n,0,575
4141,19,right,female,,110,自己,SqrB.bmp,Other,Bad,Self,No,m,m,1,824
4141,19,right,female,,111,他人,CirN.bmp,Self,Normal,Other,No,n,m,0,378
4141,19,right,female,,112,他人,CirB.bmp,Self,Bad,Other,No,m,m,1,620
4141,19,right,female,,113,他人,SqrN.bmp,Other,Normal,Other,Yes,m,n,0,402
4141,19,right,female,,114,自己,CirG.bmp,Self,Good,Self,Yes,n,n,1,14
4141,19,right,female,,115,自己,SqrN.bmp,Other,Normal,Self,No,n,m,0,974
4141,19,right,female,,116,自己,CirN.bmp,Self,Normal,Self,Yes,m,n,0,45
4141,19,right,female,,117,他人,SqrG.bmp,Other,Good,Other,Yes,m,n,0,46
4141,19,right,female,,118,他人,CirG.bmp,Self,Good,Other,No,n,m,0,511
4141,19,right,female,,119,他人,SqrB.bmp,Other,Bad,Other,Yes,,n,0,0
4141,19,right,female,,120,自己,SqrG.bmp,Other,Good,Self,No,n,m,0,405
4141,19,right,female,,121,他人,SqrN.bmp,Other,Normal,Other,Yes,n,n,1,570
4141,19,right,female,,122,他人,CirN.bmp,Self,Normal,Other,No,m,m,1,989
4141,19,right,female,,123,自己,SqrG.bmp,Other,Good,Self,No,n,m,0,656
4141,19,right,female,,124,自己,CirG.bmp,Self,Good,Self,Yes,m,n,0,548
4141,19,right,female,,125,自己,SqrB.bmp,Other,Bad,Self,No,n,m,0,457
4141,19,right,female,,126,他人,CirG.bmp,Self,Good,Other,No,n,m,0,507
4141,19,right,female,,127,自己,SqrN.bmp,Other,Normal,Self,No,n,m,0,478
4141,19,right,female,,128,自己,CirB.bmp,Self,Bad,Self,Yes,n,n,1,417
4141,19,right,female,,129,自己,CirN.bmp,Self,Normal,Self,Yes,n,n,1,425
4141,19,right,female,,130,他人,CirB.bmp,Self,Bad,Other,No,m,m,1,677
4141,19,right,female,,131,他人,SqrB.bmp,Other,Bad,Other,Yes,m,n,0,611
4141,19,right,female,,132,他人,SqrG.bmp,Other,Good,Other,Yes,m,n,0,986
4141,19,right,female,,133,自己,SqrB.bmp,Other,Bad,Self,No,n,m,0,23
4141,19,right,female,,134,自己,CirN.bmp,Self,Normal,Self,Yes,n,n,1,509
4141,19,right,female,,135,他人,CirB.bmp,Self,Bad,Other,No,m,m,1,752
4141,19,right,female,,136,自己,SqrG.bmp,Other,Good,Self,No,,m,0,0
4141,19,right,female,,137,他人,CirN.bmp,Self,Normal,Other,No,m,m,1,822
4141,19,right,female,,138,自己,CirG.bmp,Self,Good,Self,Yes,n,n,1,451
4141,19,right,female,,139,他人,SqrB.bmp,Other,Bad,Other,Yes,m,n,0,551
4141,19,right,female,,140,自己,SqrN.bmp,Other,Normal,Self,No,n,m,0,545
4141,19,right,female,,141,他人,SqrN.bmp,Other,Normal,Other,Yes,n,n,1,418
4141,19,right,female,,142,他人,CirG.bmp,Self,Good,Other,No,n,m,0,452
4141,19,right,female,,143,他人,SqrG.bmp,Other,Good,Other,Yes,n,n,1,449
4141,19,right,female,,144,自己,CirB.bmp,Self,Bad,Self,Yes,n,n,1,920
4141,19,right,female,,145,他人,SqrB.bmp,Other,Bad,Other,Yes,n,n,1,873
4141,19,right,female,,146,他人,CirG.bmp,Self,Good,Other,No,m,m,1,857
4141,19,right,female,,147,自己,CirG.bmp,Self,Good,Self,Yes,n,n,1,730
4141,19,right,female,,148,自己,SqrG.bmp,Other,Good,Self,No,m,m,1,993
4141,19,right,female,,149,他人,CirB.bmp,Self,Bad,Other,No,m,m,1,887
4141,19,right,female,,150,他人,SqrG.bmp,Other,Good,Other,Yes,m,n,0,721
4141,19,right,female,,151,他人,CirN.bmp,Self,Normal,Other,No,n,m,0,625
4141,19,right,female,,152,自己,SqrN.bmp,Other,Normal,Self,No,m,m,1,546
4141,19,right,female,,153,自己,CirB.bmp,Self,Bad,Self,Yes,,n,0,0
4141,19,right,female,,154,自己,SqrB.bmp,Other,Bad,Self,No,n,m,0,753
4141,19,right,female,,155,他人,SqrN.bmp,Other,Normal,Other,Yes,m,n,0,465
4141,19,right,female,,156,自己,CirN.bmp,Self,Normal,Self,Yes,,n,0,0
4141,19,right,female,,157,他人,CirB.bmp,Self,Bad,Other,No,,m,0,0
4141,19,right,female,,158,他人,SqrG.bmp,Other,Good,Other,Yes,,n,0,0
4141,19,right,female,,159,自己,CirN.bmp,Self,Normal,Self,Yes,,n,0,0
4141,19,right,female,,160,自己,SqrB.bmp,Other,Bad,Self,No,,m,0,0
4141,19,right,female,,161,他人,SqrN.bmp,Other,Normal,Other,Yes,,n,0,0
4141,19,right,female,,162,他人,CirN.bmp,Self,Normal,Other,No,,m,0,0
4141,19,right,female,,163,自己,CirB.bmp,Self,Bad,Self,Yes,,n,0,0
4141,19,right,female,,164,他人,CirG.bmp,Self,Good,Other,No,n,m,0,234
4141,19,right,female,,165,自己,CirG.bmp,Self,Good,Self,Yes,n,n,1,488
4141,19,right,female,,166,自己,SqrN.bmp,Other,Normal,Self,No,n,m,0,13
4141,19,right,female,,167,自己,SqrG.bmp,Other,Good,Self,No,n,m,0,473
4141,19,right,female,,168,他人,SqrB.bmp,Other,Bad,Other,Yes,n,n,1,663
4141,19,right,female,,169,他人,CirB.bmp,Self,Bad,Other,No,n,m,0,458
4141,19,right,female,,170,自己,SqrB.bmp,Other,Bad,Self,No,n,m,0,792
4141,19,right,female,,171,他人,CirN.bmp,Self,Normal,Other,No,m,m,1,752
4141,19,right,female,,172,他人,SqrB.bmp,Other,Bad,Other,Yes,m,n,0,824
4141,19,right,female,,173,自己,CirN.bmp,Self,Normal,Self,Yes,n,n,1,501
4141,19,right,female,,174,自己,SqrG.bmp,Other,Good,Self,No,,m,0,0
4141,19,right,female,,175,自己,CirG.bmp,Self,Good,Self,Yes,n,n,1,652
4141,19,right,female,,176,他人,CirG.bmp,Self,Good,Other,No,m,m,1,835
4141,19,right,female,,177,他人,SqrG.bmp,Other,Good,Other,Yes,n,n,1,809
4141,19,right,female,,178,他人,SqrN.bmp,Other,Normal,Other,Yes,m,n,0,465
4141,19,right,female,,179,自己,SqrN.bmp,Other,Normal,Self,No,n,m,0,691
4141,19,right,female,,180,自己,CirB.bmp,Self,Bad,Self,Yes,,n,0,0
4141,19,right,female,,181,自己,CirB.bmp,Self,Bad,Self,Yes,,n,0,0
4141,19,right,female,,182,他人,CirB.bmp,Self,Bad,Other,No,,m,0,0
4141,19,right,female,,183,自己,CirN.bmp,Self,Normal,Self,Yes,n,n,1,486
4141,19,right,female,,184,自己,CirG.bmp,Self,Good,Self,Yes,n,n,1,626
4141,19,right,female,,185,他人,SqrG.bmp,Other,Good,Other,Yes,m,n,0,621
4141,19,right,female,,186,他人,CirG.bmp,Self,Good,Other,No,,m,0,0
4141,19,right,female,,187,自己,SqrB.bmp,Other,Bad,Self,No,m,m,1,871
4141,19,right,female,,188,自己,SqrG.bmp,Other,Good,Self,No,,m,0,0
4141,19,right,female,,189,他人,CirN.bmp,Self,Normal,Other,No,m,m,1,479
4141,19,right,female,,190,他人,SqrN.bmp,Other,Normal,Other,Yes,n,n,1,763
4141,19,right,female,,191,自己,SqrN.bmp,Other,Normal,Self,No,,m,0,0
4141,19,right,female,,192,他人,SqrB.bmp,Other,Bad,Other,Yes,m,n,0,553
4141,19,right,female,,193,自己,CirN.bmp,Self,Normal,Self,Yes,n,n,1,649
4141,19,right,female,,194,自己,SqrB.bmp,Other,Bad,Self,No,m,m,1,538
4141,19,right,female,,195,自己,SqrG.bmp,Other,Good,Self,No,,m,0,0
4141,19,right,female,,196,自己,CirG.bmp,Self,Good,Self,Yes,n,n,1,925
4141,19,right,female,,197,自己,SqrN.bmp,Other,Normal,Self,No,m,m,1,991
4141,19,right,female,,198,他人,SqrN.bmp,Other,Normal,Other,Yes,m,n,0,1086
4141,19,right,female,,199,他人,CirB.bmp,Self,Bad,Other,No,n,m,0,632
4141,19,right,female,,200,他人,SqrG.bmp,Other,Good,Other,Yes,m,n,0,884
4141,19,right,female,,201,他人,CirN.bmp,Self,Normal,Other,No,n,m,0,485
4141,19,right,female,,202,自己,CirB.bmp,Self,Bad,Self,Yes,n,n,1,568
4141,19,right,female,,203,他人,SqrB.bmp,Other,Bad,Other,Yes,n,n,1,932
4141,19,right,female,,204,他人,CirG.bmp,Self,Good,Other,No,n,m,0,678
4141,19,right,female,,205,自己,SqrN.bmp,Other,Normal,Self,No,n,m,0,923
4141,19,right,female,,206,自己,CirN.bmp,Self,Normal,Self,Yes,,n,0,0
4141,19,right,female,,207,他人,CirG.bmp,Self,Good,Other,No,,m,0,0
4141,19,right,female,,208,自己,SqrB.bmp,Other,Bad,Self,No,,m,0,0
4141,19,right,female,,209,他人,SqrN.bmp,Other,Normal,Other,Yes,m,n,0,89
4141,19,right,female,,210,自己,SqrG.bmp,Other,Good,Self,No,n,m,0,931
4141,19,right,female,,211,他人,SqrB.bmp,Other,Bad,Other,Yes,,n,0,0
4141,19,right,female,,212,他人,CirN.bmp,Self,Normal,Other,No,m,m,1,524
4141,19,right,female,,213,他人,CirB.bmp,Self,Bad,Other,No,,m,0,0
4141,19,right,female,,214,自己,CirG.bmp,Self,Good,Self,Yes,m,n,0,533
4141,19,right,female,,215,他人,SqrG.bmp,Other,Good,Other,Yes,m,n,0,775
4141,19,right,female,,216,自己,CirB.bmp,Self,Bad,Self,Yes,n,n,1,644
4141,19,right,female,,217,自己,CirB.bmp,Self,Bad,Self,Yes,n,n,1,458
4141,19,right,female,,218,自己,SqrB.bmp,Other,Bad,Self,No,n,m,0,816
4141,19,right,female,,219,他人,CirN.bmp,Self,Normal,Other,No,m,m,1,964
4141,19,right,female,,220,他人,SqrG.bmp,Other,Good,Other,Yes,m,n,0,879
4141,19,right,female,,221,他人,CirG.bmp,Self,Good,Other,No,m,m,1,893
4141,19,right,female,,222,他人,CirB.bmp,Self,Bad,Other,No,m,m,1,1035
4141,19,right,female,,223,他人,SqrN.bmp,Other,Normal,Other,Yes,n,n,1,799
4141,19,right,female,,224,他人,SqrB.bmp,Other,Bad,Other,Yes,m,n,0,780
4141,19,right,female,,225,自己,SqrG.bmp,Other,Good,Self,No,n,m,0,545
4141,19,right,female,,226,自己,CirG.bmp,Self,Good,Self,Yes,n,n,1,629
4141,19,right,female,,227,自己,SqrN.bmp,Other,Normal,Self,No,n,m,0,1019
4141,19,right,female,,228,自己,CirN.bmp,Self,Normal,Self,Yes,,n,0,0
4141,19,right,female,,229,自己,SqrN.bmp,Other,Normal,Self,No,m,m,1,587
4141,19,right,female,,230,他人,SqrB.bmp,Other,Bad,Other,Yes,n,n,1,828
4141,19,right,female,,231,自己,CirG.bmp,Self,Good,Self,Yes,m,n,0,858
4141,19,right,female,,232,自己,SqrG.bmp,Other,Good,Self,No,m,m,1,797
4141,19,right,female,,233,他人,CirB.bmp,Self,Bad,Other,No,m,m,1,877
4141,19,right,female,,234,他人,CirG.bmp,Self,Good,Other,No,n,m,0,983
4141,19,right,female,,235,他人,SqrG.bmp,Other,Good,Other,Yes,m,n,0,620
4141,19,right,female,,236,他人,CirN.bmp,Self,Normal,Other,No,n,m,0,696
4141,19,right,female,,237,自己,SqrB.bmp,Other,Bad,Self,No,m,m,1,382
4141,19,right,female,,238,自己,CirN.bmp,Self,Normal,Self,Yes,n,n,1,783
4141,19,right,female,,239,自己,CirB.bmp,Self,Bad,Self,Yes,m,n,0,918
4141,19,right,female,,240,他人,SqrN.bmp,Other,Normal,Other,Yes,n,n,1,637
4141,19,right,female,,241,他人,CirN.bmp,Self,Normal,Other,No,m,m,1,1072
4141,19,right,female,,242,自己,CirN.bmp,Self,Normal,Self,Yes,m,n,0,654
4141,19,right,female,,243,自己,SqrB.bmp,Other,Bad,Self,No,m,m,1,1065
4141,19,right,female,,244,他人,CirB.bmp,Self,Bad,Other,No,n,m,0,1080
4141,19,right,female,,245,他人,CirG.bmp,Self,Good,Other,No,m,m,1,750
4141,19,right,female,,246,他人,SqrN.bmp,Other,Normal,Other,Yes,,n,0,0
4141,19,right,female,,247,自己,CirG.bmp,Self,Good,Self,Yes,,n,0,0
4141,19,right,female,,248,自己,SqrN.bmp,Other,Normal,Self,No,m,m,1,533
4141,19,right,female,,249,他人,SqrB.bmp,Other,Bad,Other,Yes,n,n,1,991
4141,19,right,female,,250,他人,SqrG.bmp,Other,Good,Other,Yes,,n,0,0
4141,19,right,female,,251,自己,CirB.bmp,Self,Bad,Self,Yes,m,n,0,815
4141,19,right,female,,252,自己,SqrG.bmp,Other,Good,Self,No,n,m,0,431
4141,19,right,female,,253,自己,CirN.bmp,Self,Normal,Self,Yes,n,n,1,910
4141,19,right,female,,254,自己,CirB.bmp,Self,Bad,Self,Yes,n,n,1,844
4141,19,right,female,,255,他人,SqrB.bmp,Other,Bad,Other,Yes,n,n,1,890
4141,19,right,female,,256,他人,CirG.bmp,Self,Good,Other,No,n,m,0,450
4141,19,right,female,,257,自己,SqrN.bmp,Other,Normal,Self,No,,m,0,0
4141,19,right,female,,258,自己,SqrG.bmp,Other,Good,Self,No,n,m,0,753
4141,19,right,female,,259,自己,CirG.bmp,Self,Good,Self,Yes,n,n,1,830
4141,19,right,female,,260,他人,CirB.bmp,Self,Bad,Other,No,m,m,1,770
4141,19,right,female,,261,他人,SqrG.bmp,Other,Good,Other,Yes,n,n,1,914
4141,19,right,female,,262,自己,SqrB.bmp,Other,Bad,Self,No,m,m,1,936
4141,19,right,female,,263,他人,CirN.bmp,Self,Normal,Other,No,m,m,1,890
4141,19,right,female,,264,他人,SqrN.bmp,Other,Normal,Other,Yes,,n,0,0
4141,19,right,female,,265,自己,CirG.bmp,Self,Good,Self,Yes,n,n,1,903
4141,19,right,female,,266,他人,CirG.bmp,Self,Good,Other,No,n,m,0,547
4141,19,right,female,,267,自己,SqrN.bmp,Other,Normal,Self,No,m,m,1,956
4141,19,right,female,,268,他人,SqrB.bmp,Other,Bad,Other,Yes,m,n,0,993
4141,19,right,female,,269,他人,SqrG.bmp,Other,Good,Other,Yes,,n,0,0
4141,19,right,female,,270,他人,SqrN.bmp,Other,Normal,Other,Yes,m,n,0,1057
4141,19,right,female,,271,自己,CirN.bmp,Self,Normal,Self,Yes,n,n,1,573
4141,19,right,female,,272,自己,SqrG.bmp,Other,Good,Self,No,n,m,0,680
4141,19,right,female,,273,自己,CirB.bmp,Self,Bad,Self,Yes,m,n,0,401
4141,19,right,female,,274,自己,SqrB.bmp,Other,Bad,Self,No,,m,0,0
4141,19,right,female,,275,他人,CirB.bmp,Self,Bad,Other,No,,m,0,0
4141,19,right,female,,276,他人,CirN.bmp,Self,Normal,Other,No,m,m,1,197
4141,19,right,female,,277,自己,CirN.bmp,Self,Normal,Self,Yes,,n,0,0
4141,19,right,female,,278,他人,SqrB.bmp,Other,Bad,Other,Yes,n,n,1,47
4141,19,right,female,,279,他人,CirB.bmp,Self,Bad,Other,No,,m,0,0
4141,19,right,female,,280,他人,CirN.bmp,Self,Normal,Other,No,n,m,0,101
4141,19,right,female,,281,他人,SqrG.bmp,Other,Good,Other,Yes,m,n,0,120
4141,19,right,female,,282,他人,CirG.bmp,Self,Good,Other,No,n,m,0,417
4141,19,right,female,,283,他人,SqrN.bmp,Other,Normal,Other,Yes,,n,0,0
4141,19,right,female,,284,自己,SqrB.bmp,Other,Bad,Self,No,,m,0,0
4141,19,right,female,,285,自己,SqrG.bmp,Other,Good,Self,No,,m,0,0
4141,19,right,female,,286,自己,CirG.bmp,Self,Good,Self,Yes,,n,0,0
4141,19,right,female,,287,自己,CirB.bmp,Self,Bad,Self,Yes,,n,0,0
4141,19,right,female,,288,自己,SqrN.bmp,Other,Normal,Self,No,,m,0,0
4141,19,right,female,,289,自己,SqrB.bmp,Other,Bad,Self,No,m,m,1,873
4141,19,right,female,,290,他人,SqrB.bmp,Other,Bad,Other,Yes,n,n,1,899
4141,19,right,female,,291,他人,CirN.bmp,Self,Normal,Other,No,m,m,1,1041
4141,19,right,female,,292,他人,CirG.bmp,Self,Good,Other,No,m,m,1,834
4141,19,right,female,,293,他人,CirB.bmp,Self,Bad,Other,No,m,m,1,659
4141,19,right,female,,294,自己,SqrG.bmp,Other,Good,Self,No,m,m,1,813
4141,19,right,female,,295,他人,SqrG.bmp,Other,Good,Other,Yes,m,n,0,588
4141,19,right,female,,296,自己,CirG.bmp,Self,Good,Self,Yes,n,n,1,587
4141,19,right,female,,297,自己,CirB.bmp,Self,Bad,Self,Yes,m,n,0,494
4141,19,right,female,,298,自己,SqrN.bmp,Other,Normal,Self,No,m,m,1,576
4141,19,right,female,,299,他人,SqrN.bmp,Other,Normal,Other,Yes,m,n,0,494
4141,19,right,female,,300,自己,CirN.bmp,Self,Normal,Self,Yes,,n,0,0
4141,19,right,female,,301,他人,SqrG.bmp,Other,Good,Other,Yes,n,n,1,372
4141,19,right,female,,302,他人,SqrN.bmp,Other,Normal,Other,Yes,,n,0,0
4141,19,right,female,,303,自己,SqrG.bmp,Other,Good,Self,No,n,m,0,328
4141,19,right,female,,304,自己,CirG.bmp,Self,Good,Self,Yes,,n,0,0
4141,19,right,female,,305,他人,CirB.bmp,Self,Bad,Other,No,,m,0,0
4141,19,right,female,,306,自己,SqrB.bmp,Other,Bad,Self,No,,m,0,0
4141,19,right,female,,307,他人,SqrB.bmp,Other,Bad,Other,Yes,,n,0,0
4141,19,right,female,,308,他人,CirN.bmp,Self,Normal,Other,No,,m,0,0
4141,19,right,female,,309,他人,CirG.bmp,Self,Good,Other,No,,m,0,0
4141,19,right,female,,310,自己,SqrN.bmp,Other,Normal,Self,No,m,m,1,26
4141,19,right,female,,311,自己,CirN.bmp,Self,Normal,Self,Yes,n,n,1,574
4141,19,right,female,,312,自己,CirB.bmp,Self,Bad,Self,Yes,n,n,1,781
4141,19,right,female,,313,他人,CirB.bmp,Self,Bad,Other,No,n,m,0,496
4141,19,right,female,,314,自己,CirB.bmp,Self,Bad,Self,Yes,m,n,0,887
4141,19,right,female,,315,他人,CirG.bmp,Self,Good,Other,No,n,m,0,733
4141,19,right,female,,316,自己,SqrG.bmp,Other,Good,Self,No,m,m,1,478
4141,19,right,female,,317,他人,SqrG.bmp,Other,Good,Other,Yes,,n,0,0
4141,19,right,female,,318,自己,SqrB.bmp,Other,Bad,Self,No,m,m,1,495
4141,19,right,female,,319,他人,SqrB.bmp,Other,Bad,Other,Yes,m,n,0,504
4141,19,right,female,,320,他人,CirN.bmp,Self,Normal,Other,No,m,m,1,452
4141,19,right,female,,321,自己,CirG.bmp,Self,Good,Self,Yes,n,n,1,537
4141,19,right,female,,322,他人,SqrN.bmp,Other,Normal,Other,Yes,m,n,0,461
4141,19,right,female,,323,自己,SqrN.bmp,Other,Normal,Self,No,n,m,0,507
4141,19,right,female,,324,自己,CirN.bmp,Self,Normal,Self,Yes,m,n,0,279
4141,19,right,female,,325,自己,SqrN.bmp,Other,Normal,Self,No,n,m,0,309
4141,19,right,female,,326,他人,SqrN.bmp,Other,Normal,Other,Yes,m,n,0,122
4141,19,right,female,,327,自己,CirN.bmp,Self,Normal,Self,Yes,n,n,1,458
4141,19,right,female,,328,他人,SqrG.bmp,Other,Good,Other,Yes,n,n,1,926
4141,19,right,female,,329,他人,SqrB.bmp,Other,Bad,Other,Yes,,n,0,0
4141,19,right,female,,330,他人,CirB.bmp,Self,Bad,Other,No,,m,0,0
4141,19,right,female,,331,自己,SqrG.bmp,Other,Good,Self,No,n,m,0,507
4141,19,right,female,,332,他人,CirG.bmp,Self,Good,Other,No,m,m,1,432
4141,19,right,female,,333,他人,CirN.bmp,Self,Normal,Other,No,n,m,0,261
4141,19,right,female,,334,自己,CirB.bmp,Self,Bad,Self,Yes,,n,0,0
4141,19,right,female,,335,自己,SqrB.bmp,Other,Bad,Self,No,n,m,0,173
4141,19,right,female,,336,自己,CirG.bmp,Self,Good,Self,Yes,,n,0,0
4141,19,right,female,,337,他人,CirG.bmp,Self,Good,Other,No,n,m,0,557
4141,19,right,female,,338,他人,SqrG.bmp,Other,Good,Other,Yes,m,n,0,689
4141,19,right,female,,339,自己,CirN.bmp,Self,Normal,Self,Yes,n,n,1,492
4141,19,right,female,,340,他人,CirN.bmp,Self,Normal,Other,No,n,m,0,479
4141,19,right,female,,341,他人,SqrB.bmp,Other,Bad,Other,Yes,m,n,0,522
4141,19,right,female,,342,他人,SqrN.bmp,Other,Normal,Other,Yes,n,n,1,557
4141,19,right,female,,343,自己,SqrG.bmp,Other,Good,Self,No,,m,0,0
4141,19,right,female,,344,他人,CirB.bmp,Self,Bad,Other,No,n,m,0,464
4141,19,right,female,,345,自己,CirB.bmp,Self,Bad,Self,Yes,m,n,0,390
4141,19,right,female,,346,自己,SqrN.bmp,Other,Normal,Self,No,n,m,0,660
4141,19,right,female,,347,自己,SqrB.bmp,Other,Bad,Self,No,n,m,0,480
4141,19,right,female,,348,自己,CirG.bmp,Self,Good,Self,Yes,n,n,1,422
4141,19,right,female,,349,自己,SqrN.bmp,Other,Normal,Self,No,n,m,0,21
4141,19,right,female,,350,他人,SqrG.bmp,Other,Good,Other,Yes,,n,0,0
4141,19,right,female,,351,自己,CirN.bmp,Self,Normal,Self,Yes,n,n,1,499
4141,19,right,female,,352,他人,SqrN.bmp,Other,Normal,Other,Yes,m,n,0,499
4141,19,right,female,,353,自己,SqrB.bmp,Other,Bad,Self,No,n,m,0,358
4141,19,right,female,,354,他人,CirN.bmp,Self,Normal,Other,No,n,m,0,412
4141,19,right,female,,355,他人,CirB.bmp,Self,Bad,Other,No,n,m,0,255
4141,19,right,female,,356,他人,CirG.bmp,Self,Good,Other,No,n,m,0,199
4141,19,right,female,,357,他人,SqrB.bmp,Other,Bad,Other,Yes,n,n,1,158
4141,19,right,female,,358,自己,CirG.bmp,Self,Good,Self,Yes,n,n,1,466
4141,19,right,female,,359,自己,CirB.bmp,Self,Bad,Self,Yes,,n,0,0
4141,19,right,female,,360,自己,SqrG.bmp,Other,Good,Self,No,m,m,1,119
4141,19,right,female,,361,自己,CirB.bmp,Self,Bad,Self,Yes,n,n,1,767
4141,19,right,female,,362,他人,SqrN.bmp,Other,Normal,Other,Yes,m,n,0,744
4141,19,right,female,,363,他人,CirN.bmp,Self,Normal,Other,No,m,m,1,1048
4141,19,right,female,,364,自己,SqrB.bmp,Other,Bad,Self,No,n,m,0,858
4141,19,right,female,,365,他人,CirB.bmp,Self,Bad,Other,No,,m,0,0
4141,19,right,female,,366,自己,SqrN.bmp,Other,Normal,Self,No,n,m,0,1006
4141,19,right,female,,367,自己,CirN.bmp,Self,Normal,Self,Yes,,n,0,0
4141,19,right,female,,368,自己,SqrG.bmp,Other,Good,Self,No,,m,0,0
4141,19,right,female,,369,自己,CirG.bmp,Self,Good,Self,Yes,,n,0,0
4141,19,right,female,,370,他人,CirG.bmp,Self,Good,Other,No,,m,0,0
4141,19,right,female,,371,他人,SqrB.bmp,Other,Bad,Other,Yes,,n,0,0
4141,19,right,female,,372,他人,SqrG.bmp,Other,Good,Other,Yes,,n,0,0
4141,19,right,female,,373,他人,CirG.bmp,Self,Good,Other,No,,m,0,0
4141,19,right,female,,374,自己,CirG.bmp,Self,Good,Self,Yes,m,n,0,85
4141,19,right,female,,375,他人,CirN.bmp,Self,Normal,Other,No,n,m,0,510
4141,19,right,female,,376,自己,SqrB.bmp,Other,Bad,Self,No,n,m,0,610
4141,19,right,female,,377,他人,CirB.bmp,Self,Bad,Other,No,n,m,0,608
4141,19,right,female,,378,自己,SqrG.bmp,Other,Good,Self,No,,m,0,0
4141,19,right,female,,379,自己,CirN.bmp,Self,Normal,Self,Yes,m,n,0,348
4141,19,right,female,,380,他人,SqrB.bmp,Other,Bad,Other,Yes,n,n,1,399
4141,19,right,female,,381,自己,SqrN.bmp,Other,Normal,Self,No,m,m,1,648
4141,19,right,female,,382,他人,SqrN.bmp,Other,Normal,Other,Yes,m,n,0,784
4141,19,right,female,,383,自己,CirB.bmp,Self,Bad,Self,Yes,n,n,1,1079
4141,19,right,female,,384,他人,SqrG.bmp,Other,Good,Other,Yes,n,n,1,678
4141,19,right,female,,385,他人,SqrG.bmp,Other,Good,Other,Yes,m,n,0,568
4141,19,right,female,,386,自己,SqrN.bmp,Other,Normal,Self,No,,m,0,0
4141,19,right,female,,387,他人,SqrB.bmp,Other,Bad,Other,Yes,,n,0,0
4141,19,right,female,,388,自己,SqrG.bmp,Other,Good,Self,No,m,m,1,567
4141,19,right,female,,389,他人,SqrN.bmp,Other,Normal,Other,Yes,,n,0,0
4141,19,right,female,,390,自己,CirG.bmp,Self,Good,Self,Yes,m,n,0,816
4141,19,right,female,,391,自己,CirN.bmp,Self,Normal,Self,Yes,,n,0,0
4141,19,right,female,,392,自己,SqrB.bmp,Other,Bad,Self,No,,m,0,0
4141,19,right,female,,393,他人,CirN.bmp,Self,Normal,Other,No,,m,0,0
4141,19,right,female,,394,他人,CirG.bmp,Self,Good,Other,No,,m,0,0
4141,19,right,female,,395,他人,CirB.bmp,Self,Bad,Other,No,,m,0,0
4141,19,right,female,,396,自己,CirB.bmp,Self,Bad,Self,Yes,m,n,0,798
4141,19,right,female,,397,他人,SqrG.bmp,Other,Good,Other,Yes,m,n,0,326
4141,19,right,female,,398,他人,CirB.bmp,Self,Bad,Other,No,m,m,1,532
4141,19,right,female,,399,他人,SqrN.bmp,Other,Normal,Other,Yes,m,n,0,33
4141,19,right,female,,400,自己,CirN.bmp,Self,Normal,Self,Yes,m,n,0,1002
4141,19,right,female,,401,自己,SqrG.bmp,Other,Good,Self,No,,m,0,0
4141,19,right,female,,402,他人,CirG.bmp,Self,Good,Other,No,,m,0,0
4141,19,right,female,,403,他人,CirN.bmp,Self,Normal,Other,No,,m,0,0
4141,19,right,female,,404,他人,SqrB.bmp,Other,Bad,Other,Yes,m,n,0,906
4141,19,right,female,,405,自己,CirG.bmp,Self,Good,Self,Yes,m,n,0,332
4141,19,right,female,,406,自己,CirB.bmp,Self,Bad,Self,Yes,,n,0,0
4141,19,right,female,,407,自己,SqrB.bmp,Other,Bad,Self,No,m,m,1,110
4141,19,right,female,,408,自己,SqrN.bmp,Other,Normal,Self,No,m,m,1,477
4141,19,right,female,,409,他人,CirB.bmp,Self,Bad,Other,No,m,m,1,728
4141,19,right,female,,410,他人,SqrB.bmp,Other,Bad,Other,Yes,m,n,0,735
4141,19,right,female,,411,他人,CirG.bmp,Self,Good,Other,No,m,m,1,770
4141,19,right,female,,412,自己,SqrG.bmp,Other,Good,Self,No,m,m,1,855
4141,19,right,female,,413,自己,CirN.bmp,Self,Normal,Self,Yes,n,n,1,934
4141,19,right,female,,414,他人,CirN.bmp,Self,Normal,Other,No,m,m,1,759
4141,19,right,female,,415,自己,CirB.bmp,Self,Bad,Self,Yes,n,n,1,817
4141,19,right,female,,416,他人,SqrN.bmp,Other,Normal,Other,Yes,m,n,0,525
4141,19,right,female,,417,自己,SqrB.bmp,Other,Bad,Self,No,m,m,1,902
4141,19,right,female,,418,他人,SqrG.bmp,Other,Good,Other,Yes,n,n,1,858
4141,19,right,female,,419,自己,CirG.bmp,Self,Good,Self,Yes,n,n,1,610
4141,19,right,female,,420,自己,SqrN.bmp,Other,Normal,Self,No,m,m,1,1001
4141,19,right,female,,421,自己,CirN.bmp,Self,Normal,Self,Yes,n,n,1,715
4141,19,right,female,,422,自己,SqrB.bmp,Other,Bad,Self,No,m,m,1,818
4141,19,right,female,,423,他人,CirB.bmp,Self,Bad,Other,No,m,m,1,1031
4141,19,right,female,,424,他人,CirG.bmp,Self,Good,Other,No,m,m,1,810
4141,19,right,female,,425,他人,CirN.bmp,Self,Normal,Other,No,n,m,0,900
4141,19,right,female,,426,他人,SqrG.bmp,Other,Good,Other,Yes,m,n,0,728
4141,19,right,female,,427,自己,CirB.bmp,Self,Bad,Self,Yes,,n,0,0
4141,19,right,female,,428,自己,SqrG.bmp,Other,Good,Self,No,m,m,1,763
4141,19,right,female,,429,他人,SqrB.bmp,Other,Bad,Other,Yes,n,n,1,878
4141,19,right,female,,430,他人,SqrN.bmp,Other,Normal,Other,Yes,n,n,1,965
4141,19,right,female,,431,自己,SqrN.bmp,Other,Normal,Self,No,m,m,1,931
4141,19,right,female,,432,自己,CirG.bmp,Self,Good,Self,Yes,n,n,1,844
4141,19,right,female,1,1,自己,CirG.bmp,Self,Good,Self,Yes,n,n,1,644
4141,19,right,female,1,2,他人,SqrB.bmp,Other,Bad,Other,Yes,n,n,1,738
4141,19,right,female,1,3,他人,SqrG.bmp,Other,Good,Other,Yes,n,n,1,892
4141,19,right,female,1,4,自己,SqrG.bmp,Other,Good,Self,No,m,m,1,756
4141,19,right,female,1,5,自己,CirN.bmp,Self,Normal,Self,Yes,n,n,1,648
4141,19,right,female,1,6,他人,CirN.bmp,Self,Normal,Other,No,m,m,1,699
4141,19,right,female,1,7,他人,CirG.bmp,Self,Good,Other,No,n,m,0,633
4141,19,right,female,1,8,他人,SqrN.bmp,Other,Normal,Other,Yes,m,n,0,476
4141,19,right,female,1,9,自己,SqrB.bmp,Other,Bad,Self,No,n,m,0,726
4141,19,right,female,1,10,他人,CirB.bmp,Self,Bad,Other,No,m,m,1,685
4141,19,right,female,1,11,自己,CirB.bmp,Self,Bad,Self,Yes,n,n,1,684
4141,19,right,female,1,12,自己,SqrN.bmp,Other,Normal,Self,No,n,m,0,843
4141,19,right,female,1,13,自己,CirG.bmp,Self,Good,Self,Yes,n,n,1,665
4141,19,right,female,1,14,自己,CirN.bmp,Self,Normal,Self,Yes,n,n,1,717
4141,19,right,female,1,15,自己,CirB.bmp,Self,Bad,Self,Yes,n,n,1,583
4141,19,right,female,1,16,自己,SqrN.bmp,Other,Normal,Self,No,n,m,0,651
4141,19,right,female,1,17,他人,CirB.bmp,Self,Bad,Other,No,m,m,1,879
4141,19,right,female,1,18,他人,SqrG.bmp,Other,Good,Other,Yes,n,n,1,991
4141,19,right,female,1,19,自己,SqrB.bmp,Other,Bad,Self,No,m,m,1,684
4141,19,right,female,1,20,他人,CirN.bmp,Self,Normal,Other,No,n,m,0,819
4141,19,right,female,1,21,他人,CirG.bmp,Self,Good,Other,No,m,m,1,613
4141,19,right,female,1,22,自己,SqrG.bmp,Other,Good,Self,No,m,m,1,895
4141,19,right,female,1,23,他人,SqrN.bmp,Other,Normal,Other,Yes,m,n,0,893
4141,19,right,female,1,24,他人,SqrB.bmp,Other,Bad,Other,Yes,n,n,1,1000
4141,19,right,female,1,25,自己,SqrN.bmp,Other,Normal,Self,No,m,m,1,878
4141,19,right,female,1,26,自己,SqrG.bmp,Other,Good,Self,No,m,m,1,763
4141,19,right,female,1,27,自己,CirN.bmp,Self,Normal,Self,Yes,n,n,1,1062
4141,19,right,female,1,28,他人,SqrB.bmp,Other,Bad,Other,Yes,m,n,0,507
4141,19,right,female,1,29,他人,CirN.bmp,Self,Normal,Other,No,n,m,0,577
4141,19,right,female,1,30,自己,SqrB.bmp,Other,Bad,Self,No,m,m,1,533
4141,19,right,female,1,31,他人,SqrN.bmp,Other,Normal,Other,Yes,m,n,0,731
4141,19,right,female,1,32,他人,SqrG.bmp,Other,Good,Other,Yes,m,n,0,772
4141,19,right,female,1,33,自己,CirB.bmp,Self,Bad,Self,Yes,m,n,0,807
4141,19,right,female,1,34,他人,CirB.bmp,Self,Bad,Other,No,n,m,0,772
4141,19,right,female,1,35,自己,CirG.bmp,Self,Good,Self,Yes,m,n,0,484
4141,19,right,female,1,36,他人,CirG.bmp,Self,Good,Other,No,m,m,1,709
4141,19,right,female,1,37,他人,CirG.bmp,Self,Good,Other,No,m,m,1,813
4141,19,right,female,1,38,他人,SqrB.bmp,Other,Bad,Other,Yes,n,n,1,568
4141,19,right,female,1,39,自己,SqrG.bmp,Other,Good,Self,No,m,m,1,511
4141,19,right,female,1,40,他人,CirN.bmp,Self,Normal,Other,No,n,m,0,523
4141,19,right,female,1,41,自己,CirB.bmp,Self,Bad,Self,Yes,n,n,1,698
4141,19,right,female,1,42,他人,SqrG.bmp,Other,Good,Other,Yes,m,n,0,750
4141,19,right,female,1,43,他人,CirB.bmp,Self,Bad,Other,No,n,m,0,424
4141,19,right,female,1,44,自己,CirN.bmp,Self,Normal,Self,Yes,m,n,0,564
4141,19,right,female,1,45,自己,CirG.bmp,Self,Good,Self,Yes,n,n,1,395
4141,19,right,female,1,46,自己,SqrN.bmp,Other,Normal,Self,No,n,m,0,804
4141,19,right,female,1,47,他人,SqrN.bmp,Other,Normal,Other,Yes,n,n,1,776
4141,19,right,female,1,48,自己,SqrB.bmp,Other,Bad,Self,No,m,m,1,798
4141,19,right,female,1,49,自己,SqrG.bmp,Other,Good,Self,No,n,m,0,699
4141,19,right,female,1,50,自己,CirB.bmp,Self,Bad,Self,Yes,m,n,0,833
4141,19,right,female,1,51,自己,CirG.bmp,Self,Good,Self,Yes,n,n,1,646
4141,19,right,female,1,52,他人,SqrG.bmp,Other,Good,Other,Yes,n,n,1,1006
4141,19,right,female,1,53,自己,SqrN.bmp,Other,Normal,Self,No,m,m,1,661
4141,19,right,female,1,54,他人,CirG.bmp,Self,Good,Other,No,n,m,0,562
4141,19,right,female,1,55,他人,SqrB.bmp,Other,Bad,Other,Yes,m,n,0,547
4141,19,right,female,1,56,他人,CirN.bmp,Self,Normal,Other,No,m,m,1,986
4141,19,right,female,1,57,自己,SqrB.bmp,Other,Bad,Self,No,m,m,1,963
4141,19,right,female,1,58,他人,SqrN.bmp,Other,Normal,Other,Yes,n,n,1,1032
4141,19,right,female,1,59,自己,CirN.bmp,Self,Normal,Self,Yes,m,n,0,739
4141,19,right,female,1,60,他人,CirB.bmp,Self,Bad,Other,No,n,m,0,376
4141,19,right,female,2,1,自己,SqrB.bmp,Other,Bad,Self,No,n,m,0,648
4141,19,right,female,2,2,他人,CirN.bmp,Self,Normal,Other,No,m,m,1,1082
4141,19,right,female,2,3,他人,CirG.bmp,Self,Good,Other,No,m,m,1,859
4141,19,right,female,2,4,自己,SqrN.bmp,Other,Normal,Self,No,n,m,0,762
4141,19,right,female,2,5,自己,CirG.bmp,Self,Good,Self,Yes,n,n,1,801
4141,19,right,female,2,6,自己,CirN.bmp,Self,Normal,Self,Yes,n,n,1,728
4141,19,right,female,2,7,他人,SqrN.bmp,Other,Normal,Other,Yes,m,n,0,483
4141,19,right,female,2,8,他人,CirB.bmp,Self,Bad,Other,No,m,m,1,656
4141,19,right,female,2,9,他人,SqrB.bmp,Other,Bad,Other,Yes,m,n,0,767
4141,19,right,female,2,10,自己,CirB.bmp,Self,Bad,Self,Yes,m,n,0,887
4141,19,right,female,2,11,自己,SqrG.bmp,Other,Good,Self,No,n,m,0,547
4141,19,right,female,2,12,他人,SqrG.bmp,Other,Good,Other,Yes,m,n,0,446
4141,19,right,female,2,13,自己,CirG.bmp,Self,Good,Self,Yes,n,n,1,471
4141,19,right,female,2,14,他人,CirN.bmp,Self,Normal,Other,No,m,m,1,757
4141,19,right,female,2,15,他人,CirB.bmp,Self,Bad,Other,No,,m,0,0
4141,19,right,female,2,16,他人,CirG.bmp,Self,Good,Other,No,,m,0,0
4141,19,right,female,2,17,自己,SqrG.bmp,Other,Good,Self,No,m,m,1,485
4141,19,right,female,2,18,自己,CirN.bmp,Self,Normal,Self,Yes,n,n,1,688
4141,19,right,female,2,19,自己,CirB.bmp,Self,Bad,Self,Yes,m,n,0,750
4141,19,right,female,2,20,自己,SqrN.bmp,Other,Normal,Self,No,m,m,1,912
4141,19,right,female,2,21,他人,SqrG.bmp,Other,Good,Other,Yes,n,n,1,762
4141,19,right,female,2,22,自己,SqrB.bmp,Other,Bad,Self,No,m,m,1,879
4141,19,right,female,2,23,他人,SqrN.bmp,Other,Normal,Other,Yes,m,n,0,575
4141,19,right,female,2,24,他人,SqrB.bmp,Other,Bad,Other,Yes,n,n,1,700
4141,19,right,female,2,25,他人,CirN.bmp,Self,Normal,Other,No,m,m,1,900
4141,19,right,female,2,26,他人,CirG.bmp,Self,Good,Other,No,m,m,1,742
4141,19,right,female,2,27,自己,CirG.bmp,Self,Good,Self,Yes,n,n,1,930
4141,19,right,female,2,28,他人,SqrG.bmp,Other,Good,Other,Yes,m,n,0,894
4141,19,right,female,2,29,他人,SqrB.bmp,Other,Bad,Other,Yes,n,n,1,413
4141,19,right,female,2,30,他人,SqrN.bmp,Other,Normal,Other,Yes,n,n,1,479
4141,19,right,female,2,31,自己,SqrG.bmp,Other,Good,Self,No,m,m,1,801
4141,19,right,female,2,32,自己,CirN.bmp,Self,Normal,Self,Yes,n,n,1,731
4141,19,right,female,2,33,自己,SqrB.bmp,Other,Bad,Self,No,m,m,1,570
4141,19,right,female,2,34,自己,CirB.bmp,Self,Bad,Self,Yes,n,n,1,412
4141,19,right,female,2,35,他人,CirB.bmp,Self,Bad,Other,No,m,m,1,715
4141,19,right,female,2,36,自己,SqrN.bmp,Other,Normal,Self,No,n,m,0,713
4141,19,right,female,2,37,自己,SqrN.bmp,Other,Normal,Self,No,m,m,1,542
4141,19,right,female,2,38,自己,SqrB.bmp,Other,Bad,Self,No,n,m,0,741
4141,19,right,female,2,39,他人,SqrB.bmp,Other,Bad,Other,Yes,m,n,0,620
4141,19,right,female,2,40,他人,CirG.bmp,Self,Good,Other,No,n,m,0,826
4141,19,right,female,2,41,自己,SqrG.bmp,Other,Good,Self,No,n,m,0,806
4141,19,right,female,2,42,他人,CirN.bmp,Self,Normal,Other,No,m,m,1,638
4141,19,right,female,2,43,自己,CirG.bmp,Self,Good,Self,Yes,n,n,1,783
4141,19,right,female,2,44,他人,SqrG.bmp,Other,Good,Other,Yes,m,n,0,783
4141,19,right,female,2,45,他人,SqrN.bmp,Other,Normal,Other,Yes,n,n,1,889
4141,19,right,female,2,46,他人,CirB.bmp,Self,Bad,Other,No,m,m,1,657
4141,19,right,female,2,47,自己,CirN.bmp,Self,Normal,Self,Yes,n,n,1,580
4141,19,right,female,2,48,自己,CirB.bmp,Self,Bad,Self,Yes,n,n,1,938
4141,19,right,female,2,49,他人,SqrG.bmp,Other,Good,Other,Yes,n,n,1,930
4141,19,right,female,2,50,自己,CirG.bmp,Self,Good,Self,Yes,n,n,1,706
4141,19,right,female,2,51,他人,CirG.bmp,Self,Good,Other,No,n,m,0,520
4141,19,right,female,2,52,他人,SqrN.bmp,Other,Normal,Other,Yes,n,n,1,730
4141,19,right,female,2,53,他人,CirB.bmp,Self,Bad,Other,No,n,m,0,947
4141,19,right,female,2,54,自己,CirN.bmp,Self,Normal,Self,Yes,m,n,0,881
4141,19,right,female,2,55,自己,SqrB.bmp,Other,Bad,Self,No,n,m,0,562
4141,19,right,female,2,56,他人,CirN.bmp,Self,Normal,Other,No,m,m,1,871
4141,19,right,female,2,57,自己,SqrN.bmp,Other,Normal,Self,No,n,m,0,704
4141,19,right,female,2,58,他人,SqrB.bmp,Other,Bad,Other,Yes,,n,0,0
4141,19,right,female,2,59,自己,SqrG.bmp,Other,Good,Self,No,m,m,1,596
4141,19,right,female,2,60,自己,CirB.bmp,Self,Bad,Self,Yes,n,n,1,870
4141,19,right,female,3,1,自己,SqrB.bmp,Other,Bad,Self,No,n,m,0,837
4141,19,right,female,3,2,他人,CirG.bmp,Self,Good,Other,No,m,m,1,811
4141,19,right,female,3,3,自己,SqrG.bmp,Other,Good,Self,No,n,m,0,776
4141,19,right,female,3,4,他人,SqrB.bmp,Other,Bad,Other,Yes,n,n,1,746
4141,19,right,female,3,5,自己,CirB.bmp,Self,Bad,Self,Yes,n,n,1,909
4141,19,right,female,3,6,他人,SqrG.bmp,Other,Good,Other,Yes,m,n,0,746
4141,19,right,female,3,7,自己,CirG.bmp,Self,Good,Self,Yes,n,n,1,913
4141,19,right,female,3,8,自己,CirN.bmp,Self,Normal,Self,Yes,n,n,1,501
4141,19,right,female,3,9,他人,SqrN.bmp,Other,Normal,Other,Yes,m,n,0,724
4141,19,right,female,3,10,他人,CirN.bmp,Self,Normal,Other,No,n,m,0,972
4141,19,right,female,3,11,自己,SqrN.bmp,Other,Normal,Self,No,n,m,0,954
4141,19,right,female,3,12,他人,CirB.bmp,Self,Bad,Other,No,n,m,0,721
4141,19,right,female,3,13,自己,CirB.bmp,Self,Bad,Self,Yes,n,n,1,922
4141,19,right,female,3,14,自己,SqrN.bmp,Other,Normal,Self,No,m,m,1,822
4141,19,right,female,3,15,他人,SqrB.bmp,Other,Bad,Other,Yes,n,n,1,847
4141,19,right,female,3,16,他人,CirB.bmp,Self,Bad,Other,No,m,m,1,819
4141,19,right,female,3,17,自己,CirN.bmp,Self,Normal,Self,Yes,n,n,1,823
4141,19,right,female,3,18,自己,SqrB.bmp,Other,Bad,Self,No,m,m,1,858
4141,19,right,female,3,19,他人,CirG.bmp,Self,Good,Other,No,n,m,0,508
4141,19,right,female,3,20,他人,SqrG.bmp,Other,Good,Other,Yes,m,n,0,543
4141,19,right,female,3,21,自己,SqrG.bmp,Other,Good,Self,No,n,m,0,421
4141,19,right,female,3,22,他人,CirN.bmp,Self,Normal,Other,No,m,m,1,839
4141,19,right,female,3,23,他人,SqrN.bmp,Other,Normal,Other,Yes,n,n,1,727
4141,19,right,female,3,24,自己,CirG.bmp,Self,Good,Self,Yes,n,n,1,970
4141,19,right,female,3,25,他人,SqrG.bmp,Other,Good,Other,Yes,n,n,1,734
4141,19,right,female,3,26,自己,SqrG.bmp,Other,Good,Self,No,m,m,1,728
4141,19,right,female,3,27,他人,CirB.bmp,Self,Bad,Other,No,n,m,0,776
4141,19,right,female,3,28,自己,CirB.bmp,Self,Bad,Self,Yes,n,n,1,701
4141,19,right,female,3,29,自己,SqrB.bmp,Other,Bad,Self,No,m,m,1,1029
4141,19,right,female,3,30,他人,SqrB.bmp,Other,Bad,Other,Yes,n,n,1,713
4141,19,right,female,3,31,他人,CirN.bmp,Self,Normal,Other,No,m,m,1,780
4141,19,right,female,3,32,他人,CirG.bmp,Self,Good,Other,No,m,m,1,764
4141,19,right,female,3,33,自己,CirN.bmp,Self,Normal,Self,Yes,n,n,1,816
4141,19,right,female,3,34,自己,CirG.bmp,Self,Good,Self,Yes,n,n,1,688
4141,19,right,female,3,35,他人,SqrN.bmp,Other,Normal,Other,Yes,m,n,0,974
4141,19,right,female,3,36,自己,SqrN.bmp,Other,Normal,Self,No,m,m,1,879
4141,19,right,female,3,37,自己,SqrN.bmp,Other,Normal,Self,No,m,m,1,1006
4141,19,right,female,3,38,自己,CirN.bmp,Self,Normal,Self,Yes,n,n,1,985
4141,19,right,female,3,39,自己,CirB.bmp,Self,Bad,Self,Yes,n,n,1,705
4141,19,right,female,3,40,他人,CirN.bmp,Self,Normal,Other,No,m,m,1,663
4141,19,right,female,3,41,自己,SqrB.bmp,Other,Bad,Self,No,m,m,1,1033
4141,19,right,female,3,42,自己,CirG.bmp,Self,Good,Self,Yes,n,n,1,721
4141,19,right,female,3,43,他人,SqrN.bmp,Other,Normal,Other,Yes,m,n,0,903
4141,19,right,female,3,44,自己,SqrG.bmp,Other,Good,Self,No,m,m,1,912
4141,19,right,female,3,45,他人,CirB.bmp,Self,Bad,Other,No,m,m,1,772
4141,19,right,female,3,46,他人,CirG.bmp,Self,Good,Other,No,m,m,1,829
4141,19,right,female,3,47,他人,SqrG.bmp,Other,Good,Other,Yes,m,n,0,811
4141,19,right,female,3,48,他人,SqrB.bmp,Other,Bad,Other,Yes,n,n,1,957
4141,19,right,female,3,49,自己,SqrB.bmp,Other,Bad,Self,No,m,m,1,761
4141,19,right,female,3,50,自己,CirN.bmp,Self,Normal,Self,Yes,n,n,1,886
4141,19,right,female,3,51,自己,SqrG.bmp,Other,Good,Self,No,m,m,1,870
4141,19,right,female,3,52,他人,SqrG.bmp,Other,Good,Other,Yes,,n,0,0
4141,19,right,female,3,53,他人,CirN.bmp,Self,Normal,Other,No,m,m,1,980
4141,19,right,female,3,54,他人,CirB.bmp,Self,Bad,Other,No,m,m,1,842
4141,19,right,female,3,55,他人,SqrB.bmp,Other,Bad,Other,Yes,m,n,0,848
4141,19,right,female,3,56,自己,CirG.bmp,Self,Good,Self,Yes,n,n,1,589
4141,19,right,female,3,57,他人,CirG.bmp,Self,Good,Other,No,m,m,1,703
4141,19,right,female,3,58,自己,CirB.bmp,Self,Bad,Self,Yes,n,n,1,814
4141,19,right,female,3,59,他人,SqrN.bmp,Other,Normal,Other,Yes,m,n,0,512
4141,19,right,female,3,60,自己,SqrN.bmp,Other,Normal,Self,No,n,m,0,747
4141,19,right,female,4,1,自己,SqrB.bmp,Other,Bad,Self,No,m,m,1,1036
4141,19,right,female,4,2,他人,CirN.bmp,Self,Normal,Other,No,n,m,0,832
4141,19,right,female,4,3,他人,SqrG.bmp,Other,Good,Other,Yes,n,n,1,801
4141,19,right,female,4,4,自己,CirN.bmp,Self,Normal,Self,Yes,m,n,0,763
4141,19,right,female,4,5,自己,SqrG.bmp,Other,Good,Self,No,m,m,1,888
4141,19,right,female,4,6,自己,SqrN.bmp,Other,Normal,Self,No,n,m,0,852
4141,19,right,female,4,7,他人,CirG.bmp,Self,Good,Other,No,m,m,1,698
4141,19,right,female,4,8,他人,SqrB.bmp,Other,Bad,Other,Yes,n,n,1,1032
4141,19,right,female,4,9,自己,CirG.bmp,Self,Good,Self,Yes,n,n,1,711
4141,19,right,female,4,10,他人,SqrN.bmp,Other,Normal,Other,Yes,m,n,0,831
4141,19,right,female,4,11,他人,CirB.bmp,Self,Bad,Other,No,m,m,1,643
4141,19,right,female,4,12,自己,CirB.bmp,Self,Bad,Self,Yes,n,n,1,686
4141,19,right,female,4,13,他人,CirB.bmp,Self,Bad,Other,No,m,m,1,629
4141,19,right,female,4,14,自己,CirN.bmp,Self,Normal,Self,Yes,n,n,1,639
4141,19,right,female,4,15,他人,SqrG.bmp,Other,Good,Other,Yes,m,n,0,995
4141,19,right,female,4,16,他人,CirG.bmp,Self,Good,Other,No,m,m,1,744
4141,19,right,female,4,17,自己,SqrN.bmp,Other,Normal,Self,No,n,m,0,720
4141,19,right,female,4,18,自己,CirB.bmp,Self,Bad,Self,Yes,,n,0,0
4141,19,right,female,4,19,他人,SqrB.bmp,Other,Bad,Other,Yes,m,n,0,450
4141,19,right,female,4,20,自己,SqrB.bmp,Other,Bad,Self,No,m,m,1,806
4141,19,right,female,4,21,自己,CirG.bmp,Self,Good,Self,Yes,n,n,1,644
4141,19,right,female,4,22,他人,SqrN.bmp,Other,Normal,Other,Yes,m,n,0,586
4141,19,right,female,4,23,他人,CirN.bmp,Self,Normal,Other,No,n,m,0,464
4141,19,right,female,4,24,自己,SqrG.bmp,Other,Good,Self,No,m,m,1,384
4141,19,right,female,4,25,自己,SqrG.bmp,Other,Good,Self,No,m,m,1,522
4141,19,right,female,4,26,自己,CirN.bmp,Self,Normal,Self,Yes,n,n,1,600
4141,19,right,female,4,27,自己,CirG.bmp,Self,Good,Self,Yes,n,n,1,566
4141,19,right,female,4,28,他人,SqrN.bmp,Other,Normal,Other,Yes,m,n,0,495
4141,19,right,female,4,29,他人,SqrB.bmp,Other,Bad,Other,Yes,m,n,0,698
4141,19,right,female,4,30,他人,CirB.bmp,Self,Bad,Other,No,m,m,1,733
4141,19,right,female,4,31,他人,CirG.bmp,Self,Good,Other,No,m,m,1,850
4141,19,right,female,4,32,他人,SqrG.bmp,Other,Good,Other,Yes,n,n,1,688
4141,19,right,female,4,33,自己,SqrB.bmp,Other,Bad,Self,No,m,m,1,952
4141,19,right,female,4,34,他人,CirN.bmp,Self,Normal,Other,No,n,m,0,786
4141,19,right,female,4,35,自己,CirB.bmp,Self,Bad,Self,Yes,m,n,0,718
4141,19,right,female,4,36,自己,SqrN.bmp,Other,Normal,Self,No,m,m,1,692
4141,19,right,female,4,37,他人,CirN.bmp,Self,Normal,Other,No,n,m,0,983
4141,19,right,female,4,38,他人,CirG.bmp,Self,Good,Other,No,,m,0,0
4141,19,right,female,4,39,自己,CirG.bmp,Self,Good,Self,Yes,n,n,1,730
4141,19,right,female,4,40,自己,CirN.bmp,Self,Normal,Self,Yes,m,n,0,324
4141,19,right,female,4,41,自己,CirB.bmp,Self,Bad,Self,Yes,,n,0,0
4141,19,right,female,4,42,他人,SqrG.bmp,Other,Good,Other,Yes,,n,0,0
4141,19,right,female,4,43,他人,SqrN.bmp,Other,Normal,Other,Yes,n,n,1,866
4141,19,right,female,4,44,自己,SqrN.bmp,Other,Normal,Self,No,m,m,1,727
4141,19,right,female,4,45,自己,SqrG.bmp,Other,Good,Self,No,n,m,0,888
4141,19,right,female,4,46,他人,SqrB.bmp,Other,Bad,Other,Yes,n,n,1,822
4141,19,right,female,4,47,他人,CirB.bmp,Self,Bad,Other,No,m,m,1,644
4141,19,right,female,4,48,自己,SqrB.bmp,Other,Bad,Self,No,n,m,0,801
4141,19,right,female,4,49,他人,SqrN.bmp,Other,Normal,Other,Yes,m,n,0,338
4141,19,right,female,4,50,他人,CirN.bmp,Self,Normal,Other,No,,m,0,0
4141,19,right,female,4,51,自己,CirB.bmp,Self,Bad,Self,Yes,,n,0,0
4141,19,right,female,4,52,自己,CirG.bmp,Self,Good,Self,Yes,n,n,1,56
4141,19,right,female,4,53,自己,SqrN.bmp,Other,Normal,Self,No,m,m,1,480
4141,19,right,female,4,54,他人,CirB.bmp,Self,Bad,Other,No,m,m,1,870
4141,19,right,female,4,55,自己,SqrB.bmp,Other,Bad,Self,No,n,m,0,695
4141,19,right,female,4,56,他人,CirG.bmp,Self,Good,Other,No,m,m,1,659
4141,19,right,female,4,57,他人,SqrG.bmp,Other,Good,Other,Yes,n,n,1,832
4141,19,right,female,4,58,他人,SqrB.bmp,Other,Bad,Other,Yes,n,n,1,696
4141,19,right,female,4,59,自己,SqrG.bmp,Other,Good,Self,No,m,m,1,580
4141,19,right,female,4,60,自己,CirN.bmp,Self,Normal,Self,Yes,n,n,1,621
4141,19,right,female,5,1,自己,CirN.bmp,Self,Normal,Self,Yes,n,n,1,463
4141,19,right,female,5,2,自己,SqrB.bmp,Other,Bad,Self,No,m,m,1,412
4141,19,right,female,5,3,他人,CirN.bmp,Self,Normal,Other,No,m,m,1,802
4141,19,right,female,5,4,他人,SqrG.bmp,Other,Good,Other,Yes,m,n,0,461
4141,19,right,female,5,5,自己,SqrG.bmp,Other,Good,Self,No,n,m,0,457
4141,19,right,female,5,6,自己,CirB.bmp,Self,Bad,Self,Yes,m,n,0,739
4141,19,right,female,5,7,他人,CirG.bmp,Self,Good,Other,No,n,m,0,458
4141,19,right,female,5,8,他人,SqrB.bmp,Other,Bad,Other,Yes,,n,0,0
4141,19,right,female,5,9,自己,SqrN.bmp,Other,Normal,Self,No,n,m,0,295
4141,19,right,female,5,10,自己,CirG.bmp,Self,Good,Self,Yes,n,n,1,607
4141,19,right,female,5,11,他人,SqrN.bmp,Other,Normal,Other,Yes,m,n,0,436
4141,19,right,female,5,12,他人,CirB.bmp,Self,Bad,Other,No,n,m,0,427
4141,19,right,female,5,13,自己,CirB.bmp,Self,Bad,Self,Yes,n,n,1,570
4141,19,right,female,5,14,自己,CirG.bmp,Self,Good,Self,Yes,n,n,1,470
4141,19,right,female,5,15,他人,CirB.bmp,Self,Bad,Other,No,n,m,0,394
4141,19,right,female,5,16,他人,SqrB.bmp,Other,Bad,Other,Yes,m,n,0,546
4141,19,right,female,5,17,他人,CirN.bmp,Self,Normal,Other,No,n,m,0,483
4141,19,right,female,5,18,自己,CirN.bmp,Self,Normal,Self,Yes,n,n,1,513
4141,19,right,female,5,19,他人,SqrG.bmp,Other,Good,Other,Yes,m,n,0,431
4141,19,right,female,5,20,他人,CirG.bmp,Self,Good,Other,No,,m,0,0
4141,19,right,female,5,21,他人,SqrN.bmp,Other,Normal,Other,Yes,,n,0,0
4141,19,right,female,5,22,自己,SqrN.bmp,Other,Normal,Self,No,,m,0,0
4141,19,right,female,5,23,自己,SqrG.bmp,Other,Good,Self,No,,m,0,0
4141,19,right,female,5,24,自己,SqrB.bmp,Other,Bad,Self,No,m,m,1,360
4141,19,right,female,5,25,自己,SqrG.bmp,Other,Good,Self,No,m,m,1,824
4141,19,right,female,5,26,他人,SqrN.bmp,Other,Normal,Other,Yes,n,n,1,652
4141,19,right,female,5,27,他人,CirB.bmp,Self,Bad,Other,No,m,m,1,705
4141,19,right,female,5,28,他人,CirN.bmp,Self,Normal,Other,No,m,m,1,724
4141,19,right,female,5,29,自己,CirB.bmp,Self,Bad,Self,Yes,m,n,0,506
4141,19,right,female,5,30,自己,SqrN.bmp,Other,Normal,Self,No,n,m,0,679
4141,19,right,female,5,31,自己,SqrB.bmp,Other,Bad,Self,No,,m,0,0
4141,19,right,female,5,32,自己,CirN.bmp,Self,Normal,Self,Yes,m,n,0,633
4141,19,right,female,5,33,他人,CirG.bmp,Self,Good,Other,No,m,m,1,697
4141,19,right,female,5,34,他人,SqrG.bmp,Other,Good,Other,Yes,n,n,1,678
4141,19,right,female,5,35,他人,SqrB.bmp,Other,Bad,Other,Yes,m,n,0,551
4141,19,right,female,5,36,自己,CirG.bmp,Self,Good,Self,Yes,n,n,1,615
4141,19,right,female,5,37,他人,CirN.bmp,Self,Normal,Other,No,m,m,1,641
4141,19,right,female,5,38,自己,SqrB.bmp,Other,Bad,Self,No,n,m,0,776
4141,19,right,female,5,39,他人,CirB.bmp,Self,Bad,Other,No,m,m,1,725
4141,19,right,female,5,40,他人,SqrG.bmp,Other,Good,Other,Yes,m,n,0,845
4141,19,right,female,5,41,自己,SqrN.bmp,Other,Normal,Self,No,,m,0,0
4141,19,right,female,5,42,自己,CirN.bmp,Self,Normal,Self,Yes,n,n,1,821
4141,19,right,female,5,43,他人,CirG.bmp,Self,Good,Other,No,m,m,1,647
4141,19,right,female,5,44,他人,SqrN.bmp,Other,Normal,Other,Yes,n,n,1,741
4141,19,right,female,5,45,自己,CirB.bmp,Self,Bad,Self,Yes,m,n,0,557
4141,19,right,female,5,46,他人,SqrB.bmp,Other,Bad,Other,Yes,n,n,1,731
4141,19,right,female,5,47,自己,SqrG.bmp,Other,Good,Self,No,n,m,0,762
4141,19,right,female,5,48,自己,CirG.bmp,Self,Good,Self,Yes,n,n,1,684
4141,19,right,female,5,49,自己,CirB.bmp,Self,Bad,Self,Yes,m,n,0,752
4141,19,right,female,5,50,自己,SqrB.bmp,Other,Bad,Self,No,n,m,0,456
4141,19,right,female,5,51,他人,SqrB.bmp,Other,Bad,Other,Yes,,n,0,0
4141,19,right,female,5,52,他人,CirN.bmp,Self,Normal,Other,No,m,m,1,56
4141,19,right,female,5,53,他人,SqrG.bmp,Other,Good,Other,Yes,m,n,0,808
4141,19,right,female,5,54,自己,SqrG.bmp,Other,Good,Self,No,n,m,0,789
4141,19,right,female,5,55,自己,SqrN.bmp,Other,Normal,Self,No,,m,0,0
4141,19,right,female,5,56,他人,CirB.bmp,Self,Bad,Other,No,m,m,1,383
4141,19,right,female,5,57,他人,CirG.bmp,Self,Good,Other,No,m,m,1,544
4141,19,right,female,5,58,自己,CirG.bmp,Self,Good,Self,Yes,n,n,1,667
4141,19,right,female,5,59,他人,SqrN.bmp,Other,Normal,Other,Yes,m,n,0,452
4141,19,right,female,5,60,自己,CirN.bmp,Self,Normal,Self,Yes,n,n,1,438
4141,19,right,female,6,1,他人,SqrN.bmp,Other,Normal,Other,Yes,n,n,1,763
4141,19,right,female,6,2,自己,CirG.bmp,Self,Good,Self,Yes,m,n,0,751
4141,19,right,female,6,3,自己,SqrB.bmp,Other,Bad,Self,No,m,m,1,1044
4141,19,right,female,6,4,他人,CirN.bmp,Self,Normal,Other,No,n,m,0,747
4141,19,right,female,6,5,自己,SqrG.bmp,Other,Good,Self,No,m,m,1,928
4141,19,right,female,6,6,自己,CirN.bmp,Self,Normal,Self,Yes,m,n,0,532
4141,19,right,female,6,7,他人,CirG.bmp,Self,Good,Other,No,m,m,1,653
4141,19,right,female,6,8,他人,CirB.bmp,Self,Bad,Other,No,m,m,1,461
4141,19,right,female,6,9,自己,CirB.bmp,Self,Bad,Self,Yes,m,n,0,293
4141,19,right,female,6,10,自己,SqrN.bmp,Other,Normal,Self,No,m,m,1,611
4141,19,right,female,6,11,他人,SqrB.bmp,Other,Bad,Other,Yes,m,n,0,396
4141,19,right,female,6,12,他人,SqrG.bmp,Other,Good,Other,Yes,m,n,0,501
4141,19,right,female,6,13,自己,SqrB.bmp,Other,Bad,Self,No,n,m,0,422
4141,19,right,female,6,14,他人,SqrB.bmp,Other,Bad,Other,Yes,m,n,0,420
4141,19,right,female,6,15,自己,SqrN.bmp,Other,Normal,Self,No,n,m,0,703
4141,19,right,female,6,16,自己,CirG.bmp,Self,Good,Self,Yes,n,n,1,790
4141,19,right,female,6,17,自己,CirN.bmp,Self,Normal,Self,Yes,n,n,1,667
4141,19,right,female,6,18,他人,CirN.bmp,Self,Normal,Other,No,m,m,1,607
4141,19,right,female,6,19,他人,SqrN.bmp,Other,Normal,Other,Yes,m,n,0,763
4141,19,right,female,6,20,自己,SqrG.bmp,Other,Good,Self,No,n,m,0,486
4141,19,right,female,6,21,他人,CirG.bmp,Self,Good,Other,No,,m,0,0
4141,19,right,female,6,22,自己,CirB.bmp,Self,Bad,Self,Yes,n,n,1,315
4141,19,right,female,6,23,他人,SqrG.bmp,Other,Good,Other,Yes,m,n,0,422
4141,19,right,female,6,24,他人,CirB.bmp,Self,Bad,Other,No,m,m,1,956
4141,19,right,female,6,25,他人,SqrN.bmp,Other,Normal,Other,Yes,,n,0,0
4141,19,right,female,6,26,自己,SqrB.bmp,Other,Bad,Self,No,,m,0,0
4141,19,right,female,6,27,他人,SqrG.bmp,Other,Good,Other,Yes,,n,0,0
4141,19,right,female,6,28,他人,CirN.bmp,Self,Normal,Other,No,m,m,1,310
4141,19,right,female,6,29,自己,CirB.bmp,Self,Bad,Self,Yes,m,n,0,762
4141,19,right,female,6,30,他人,SqrB.bmp,Other,Bad,Other,Yes,m,n,0,944
4141,19,right,female,6,31,自己,CirN.bmp,Self,Normal,Self,Yes,,n,0,0
4141,19,right,female,6,32,自己,CirG.bmp,Self,Good,Self,Yes,n,n,1,406
4141,19,right,female,6,33,自己,SqrG.bmp,Other,Good,Self,No,m,m,1,629
4141,19,right,female,6,34,他人,CirG.bmp,Self,Good,Other,No,,m,0,0
4141,19,right,female,6,35,自己,SqrN.bmp,Other,Normal,Self,No,n,m,0,459
4141,19,right,female,6,36,他人,CirB.bmp,Self,Bad,Other,No,,m,0,0
4141,19,right,female,6,37,他人,SqrB.bmp,Other,Bad,Other,Yes,m,n,0,303
4141,19,right,female,6,38,他人,CirN.bmp,Self,Normal,Other,No,n,m,0,560
4141,19,right,female,6,39,他人,CirG.bmp,Self,Good,Other,No,m,m,1,348
4141,19,right,female,6,40,自己,CirB.bmp,Self,Bad,Self,Yes,m,n,0,696
4141,19,right,female,6,41,自己,SqrN.bmp,Other,Normal,Self,No,m,m,1,457
4141,19,right,female,6,42,他人,SqrG.bmp,Other,Good,Other,Yes,m,n,0,327
4141,19,right,female,6,43,自己,SqrG.bmp,Other,Good,Self,No,,m,0,0
4141,19,right,female,6,44,自己,CirG.bmp,Self,Good,Self,Yes,,n,0,0
4141,19,right,female,6,45,他人,CirB.bmp,Self,Bad,Other,No,,m,0,0
4141,19,right,female,6,46,自己,SqrB.bmp,Other,Bad,Self,No,,m,0,0
4141,19,right,female,6,47,他人,SqrN.bmp,Other,Normal,Other,Yes,m,n,0,140
4141,19,right,female,6,48,自己,CirN.bmp,Self,Normal,Self,Yes,n,n,1,645
4141,19,right,female,6,49,自己,CirN.bmp,Self,Normal,Self,Yes,n,n,1,527
4141,19,right,female,6,50,他人,SqrB.bmp,Other,Bad,Other,Yes,m,n,0,433
4141,19,right,female,6,51,他人,SqrN.bmp,Other,Normal,Other,Yes,m,n,0,824
4141,19,right,female,6,52,他人,CirG.bmp,Self,Good,Other,No,n,m,0,460
4141,19,right,female,6,53,自己,SqrG.bmp,Other,Good,Self,No,n,m,0,654
4141,19,right,female,6,54,自己,CirB.bmp,Self,Bad,Self,Yes,m,n,0,812
4141,19,right,female,6,55,他人,CirB.bmp,Self,Bad,Other,No,n,m,0,671
4141,19,right,female,6,56,自己,SqrB.bmp,Other,Bad,Self,No,m,m,1,1063
4141,19,right,female,6,57,他人,CirN.bmp,Self,Normal,Other,No,m,m,1,946
4141,19,right,female,6,58,自己,CirG.bmp,Self,Good,Self,Yes,n,n,1,778
4141,19,right,female,6,59,他人,SqrG.bmp,Other,Good,Other,Yes,m,n,0,958
4141,19,right,female,6,60,自己,SqrN.bmp,Other,Normal,Self,No,n,m,0,795
4141,19,right,female,7,1,自己,CirN.bmp,Self,Normal,Self,Yes,n,n,1,766
4141,19,right,female,7,2,他人,CirN.bmp,Self,Normal,Other,No,m,m,1,714
4141,19,right,female,7,3,他人,CirB.bmp,Self,Bad,Other,No,m,m,1,822
4141,19,right,female,7,4,他人,CirG.bmp,Self,Good,Other,No,m,m,1,520
4141,19,right,female,7,5,自己,CirB.bmp,Self,Bad,Self,Yes,n,n,1,638
4141,19,right,female,7,6,自己,SqrN.bmp,Other,Normal,Self,No,m,m,1,829
4141,19,right,female,7,7,他人,SqrB.bmp,Other,Bad,Other,Yes,n,n,1,944
4141,19,right,female,7,8,自己,CirG.bmp,Self,Good,Self,Yes,m,n,0,1014
4141,19,right,female,7,9,他人,SqrG.bmp,Other,Good,Other,Yes,n,n,1,970
4141,19,right,female,7,10,自己,SqrG.bmp,Other,Good,Self,No,m,m,1,861
4141,19,right,female,7,11,他人,SqrN.bmp,Other,Normal,Other,Yes,,n,0,0
4141,19,right,female,7,12,自己,SqrB.bmp,Other,Bad,Self,No,m,m,1,776
4141,19,right,female,7,13,自己,CirG.bmp,Self,Good,Self,Yes,n,n,1,636
4141,19,right,female,7,14,自己,SqrG.bmp,Other,Good,Self,No,m,m,1,789
4141,19,right,female,7,15,他人,SqrN.bmp,Other,Normal,Other,Yes,n,n,1,888
4141,19,right,female,7,16,他人,SqrG.bmp,Other,Good,Other,Yes,,n,0,0
4141,19,right,female,7,17,他人,CirB.bmp,Self,Bad,Other,No,m,m,1,775
4141,19,right,female,7,18,自己,SqrB.bmp,Other,Bad,Self,No,m,m,1,827
4141,19,right,female,7,19,自己,CirB.bmp,Self,Bad,Self,Yes,n,n,1,776
4141,19,right,female,7,20,他人,CirN.bmp,Self,Normal,Other,No,n,m,0,578
4141,19,right,female,7,21,自己,SqrN.bmp,Other,Normal,Self,No,n,m,0,998
4141,19,right,female,7,22,他人,CirG.bmp,Self,Good,Other,No,m,m,1,493
4141,19,right,female,7,23,自己,CirN.bmp,Self,Normal,Self,Yes,n,n,1,746
4141,19,right,female,7,24,他人,SqrB.bmp,Other,Bad,Other,Yes,m,n,0,447
4141,19,right,female,7,25,自己,CirG.bmp,Self,Good,Self,Yes,n,n,1,468
4141,19,right,female,7,26,自己,SqrG.bmp,Other,Good,Self,No,m,m,1,468
4141,19,right,female,7,27,他人,CirG.bmp,Self,Good,Other,No,m,m,1,741
4141,19,right,female,7,28,他人,SqrG.bmp,Other,Good,Other,Yes,n,n,1,671
4141,19,right,female,7,29,他人,SqrN.bmp,Other,Normal,Other,Yes,m,n,0,734
4141,19,right,female,7,30,他人,SqrB.bmp,Other,Bad,Other,Yes,m,n,0,893
4141,19,right,female,7,31,自己,CirN.bmp,Self,Normal,Self,Yes,n,n,1,616
4141,19,right,female,7,32,他人,CirB.bmp,Self,Bad,Other,No,m,m,1,555
4141,19,right,female,7,33,自己,SqrB.bmp,Other,Bad,Self,No,n,m,0,694
4141,19,right,female,7,34,自己,SqrN.bmp,Other,Normal,Self,No,m,m,1,642
4141,19,right,female,7,35,他人,CirN.bmp,Self,Normal,Other,No,m,m,1,889
4141,19,right,female,7,36,自己,CirB.bmp,Self,Bad,Self,Yes,n,n,1,506
4141,19,right,female,7,37,自己,CirG.bmp,Self,Good,Self,Yes,n,n,1,644
4141,19,right,female,7,38,他人,SqrB.bmp,Other,Bad,Other,Yes,m,n,0,373
4141,19,right,female,7,39,他人,CirG.bmp,Self,Good,Other,No,n,m,0,395
4141,19,right,female,7,40,他人,SqrN.bmp,Other,Normal,Other,Yes,m,n,0,542
4141,19,right,female,7,41,自己,SqrB.bmp,Other,Bad,Self,No,n,m,0,595
4141,19,right,female,7,42,自己,SqrN.bmp,Other,Normal,Self,No,m,m,1,589
4141,19,right,female,7,43,他人,SqrG.bmp,Other,Good,Other,Yes,n,n,1,696
4141,19,right,female,7,44,自己,SqrG.bmp,Other,Good,Self,No,m,m,1,741
4141,19,right,female,7,45,自己,CirN.bmp,Self,Normal,Self,Yes,m,n,0,620
4141,19,right,female,7,46,他人,CirB.bmp,Self,Bad,Other,No,m,m,1,715
4141,19,right,female,7,47,他人,CirN.bmp,Self,Normal,Other,No,n,m,0,806
4141,19,right,female,7,48,自己,CirB.bmp,Self,Bad,Self,Yes,,n,0,0
4141,19,right,female,7,49,他人,CirG.bmp,Self,Good,Other,No,n,m,0,61
4141,19,right,female,7,50,他人,CirN.bmp,Self,Normal,Other,No,,m,0,0
4141,19,right,female,7,51,自己,CirN.bmp,Self,Normal,Self,Yes,,n,0,0
4141,19,right,female,7,52,自己,SqrB.bmp,Other,Bad,Self,No,,m,0,0
4141,19,right,female,7,53,自己,SqrG.bmp,Other,Good,Self,No,n,m,0,727
4141,19,right,female,7,54,他人,CirB.bmp,Self,Bad,Other,No,n,m,0,850
4141,19,right,female,7,55,他人,SqrN.bmp,Other,Normal,Other,Yes,n,n,1,746
4141,19,right,female,7,56,他人,SqrB.bmp,Other,Bad,Other,Yes,n,n,1,888
4141,19,right,female,7,57,自己,CirG.bmp,Self,Good,Self,Yes,m,n,0,487
4141,19,right,female,7,58,他人,SqrG.bmp,Other,Good,Other,Yes,m,n,0,572
4141,19,right,female,7,59,自己,CirB.bmp,Self,Bad,Self,Yes,m,n,0,817
4141,19,right,female,7,60,自己,SqrN.bmp,Other,Normal,Self,No,n,m,0,860
4141,19,right,female,8,1,他人,SqrG.bmp,Other,Good,Other,Yes,,n,0,0
4141,19,right,female,8,2,自己,SqrB.bmp,Other,Bad,Self,No,m,m,1,748
4141,19,right,female,8,3,他人,CirB.bmp,Self,Bad,Other,No,m,m,1,319
4141,19,right,female,8,4,自己,CirB.bmp,Self,Bad,Self,Yes,,n,0,0
4141,19,right,female,8,5,他人,CirN.bmp,Self,Normal,Other,No,n,m,0,10
4141,19,right,female,8,6,自己,SqrN.bmp,Other,Normal,Self,No,,m,0,0
4141,19,right,female,8,7,自己,SqrG.bmp,Other,Good,Self,No,,m,0,0
4141,19,right,female,8,8,自己,CirN.bmp,Self,Normal,Self,Yes,m,n,0,328
4141,19,right,female,8,9,他人,SqrB.bmp,Other,Bad,Other,Yes,m,n,0,340
4141,19,right,female,8,10,他人,CirG.bmp,Self,Good,Other,No,m,m,1,284
4141,19,right,female,8,11,自己,CirG.bmp,Self,Good,Self,Yes,m,n,0,390
4141,19,right,female,8,12,他人,SqrN.bmp,Other,Normal,Other,Yes,m,n,0,442
4141,19,right,female,8,13,自己,SqrN.bmp,Other,Normal,Self,No,m,m,1,805
4141,19,right,female,8,14,他人,SqrN.bmp,Other,Normal,Other,Yes,n,n,1,695
4141,19,right,female,8,15,他人,SqrG.bmp,Other,Good,Other,Yes,m,n,0,663
4141,19,right,female,8,16,自己,SqrG.bmp,Other,Good,Self,No,n,m,0,557
4141,19,right,female,8,17,自己,SqrB.bmp,Other,Bad,Self,No,m,m,1,287
4141,19,right,female,8,18,他人,SqrB.bmp,Other,Bad,Other,Yes,n,n,1,675
4141,19,right,female,8,19,他人,CirB.bmp,Self,Bad,Other,No,m,m,1,605
4141,19,right,female,8,20,自己,CirB.bmp,Self,Bad,Self,Yes,n,n,1,644
4141,19,right,female,8,21,自己,CirG.bmp,Self,Good,Self,Yes,n,n,1,993
4141,19,right,female,8,22,他人,CirG.bmp,Self,Good,Other,No,m,m,1,858
4141,19,right,female,8,23,他人,CirN.bmp,Self,Normal,Other,No,m,m,1,999
4141,19,right,female,8,24,自己,CirN.bmp,Self,Normal,Self,Yes,n,n,1,1053
4141,19,right,female,8,25,自己,SqrB.bmp,Other,Bad,Self,No,m,m,1,818
4141,19,right,female,8,26,自己,SqrG.bmp,Other,Good,Self,No,n,m,0,477
4141,19,right,female,8,27,他人,SqrB.bmp,Other,Bad,Other,Yes,m,n,0,326
4141,19,right,female,8,28,他人,CirG.bmp,Self,Good,Other,No,m,m,1,649
4141,19,right,female,8,29,自己,CirG.bmp,Self,Good,Self,Yes,m,n,0,419
4141,19,right,female,8,30,他人,SqrG.bmp,Other,Good,Other,Yes,m,n,0,437
4141,19,right,female,8,31,他人,CirB.bmp,Self,Bad,Other,No,m,m,1,1044
4141,19,right,female,8,32,自己,CirB.bmp,Self,Bad,Self,Yes,n,n,1,756
4141,19,right,female,8,33,自己,SqrN.bmp,Other,Normal,Self,No,m,m,1,830
4141,19,right,female,8,34,他人,SqrN.bmp,Other,Normal,Other,Yes,,n,0,0
4141,19,right,female,8,35,自己,CirN.bmp,Self,Normal,Self,Yes,,n,0,0
4141,19,right,female,8,36,他人,CirN.bmp,Self,Normal,Other,No,,m,0,0
4141,19,right,female,8,37,自己,SqrN.bmp,Other,Normal,Self,No,n,m,0,618
4141,19,right,female,8,38,他人,SqrB.bmp,Other,Bad,Other,Yes,n,n,1,574
4141,19,right,female,8,39,他人,CirG.bmp,Self,Good,Other,No,n,m,0,955
4141,19,right,female,8,40,自己,SqrG.bmp,Other,Good,Self,No,n,m,0,463
4141,19,right,female,8,41,自己,CirB.bmp,Self,Bad,Self,Yes,,n,0,0
4141,19,right,female,8,42,自己,SqrB.bmp,Other,Bad,Self,No,,m,0,0
4141,19,right,female,8,43,他人,SqrG.bmp,Other,Good,Other,Yes,,n,0,0
4141,19,right,female,8,44,自己,CirN.bmp,Self,Normal,Self,Yes,m,n,0,557
4141,19,right,female,8,45,他人,CirB.bmp,Self,Bad,Other,No,n,m,0,988
4141,19,right,female,8,46,他人,SqrN.bmp,Other,Normal,Other,Yes,m,n,0,863
4141,19,right,female,8,47,他人,CirN.bmp,Self,Normal,Other,No,m,m,1,713
4141,19,right,female,8,48,自己,CirG.bmp,Self,Good,Self,Yes,n,n,1,651
4141,19,right,female,8,49,自己,CirB.bmp,Self,Bad,Self,Yes,n,n,1,743
4141,19,right,female,8,50,自己,CirG.bmp,Self,Good,Self,Yes,n,n,1,1051
4141,19,right,female,8,51,他人,CirN.bmp,Self,Normal,Other,No,m,m,1,759
4141,19,right,female,8,52,自己,SqrG.bmp,Other,Good,Self,No,n,m,0,661
4141,19,right,female,8,53,自己,SqrB.bmp,Other,Bad,Self,No,m,m,1,834
4141,19,right,female,8,54,自己,SqrN.bmp,Other,Normal,Self,No,m,m,1,528
4141,19,right,female,8,55,他人,SqrB.bmp,Other,Bad,Other,Yes,n,n,1,653
4141,19,right,female,8,56,他人,SqrN.bmp,Other,Normal,Other,Yes,m,n,0,391
4141,19,right,female,8,57,他人,SqrG.bmp,Other,Good,Other,Yes,n,n,1,525
4141,19,right,female,8,58,他人,CirG.bmp,Self,Good,Other,No,m,m,1,533
4141,19,right,female,8,59,自己,CirN.bmp,Self,Normal,Self,Yes,m,n,0,901
4141,19,right,female,8,60,他人,CirB.bmp,Self,Bad,Other,No,m,m,1,708
4141,19,right,female,9,1,自己,SqrN.bmp,Other,Normal,Self,No,n,m,0,452
4141,19,right,female,9,2,他人,SqrB.bmp,Other,Bad,Other,Yes,m,n,0,715
4141,19,right,female,9,3,他人,SqrN.bmp,Other,Normal,Other,Yes,m,n,0,818
4141,19,right,female,9,4,自己,CirB.bmp,Self,Bad,Self,Yes,m,n,0,641
4141,19,right,female,9,5,自己,CirN.bmp,Self,Normal,Self,Yes,m,n,0,770
4141,19,right,female,9,6,他人,CirG.bmp,Self,Good,Other,No,n,m,0,682
4141,19,right,female,9,7,他人,CirN.bmp,Self,Normal,Other,No,m,m,1,650
4141,19,right,female,9,8,自己,SqrG.bmp,Other,Good,Self,No,m,m,1,989
4141,19,right,female,9,9,他人,SqrG.bmp,Other,Good,Other,Yes,,n,0,0
4141,19,right,female,9,10,自己,SqrB.bmp,Other,Bad,Self,No,,m,0,0
4141,19,right,female,9,11,他人,CirB.bmp,Self,Bad,Other,No,m,m,1,366
4141,19,right,female,9,12,自己,CirG.bmp,Self,Good,Self,Yes,m,n,0,599
4141,19,right,female,9,13,他人,SqrB.bmp,Other,Bad,Other,Yes,m,n,0,821
4141,19,right,female,9,14,自己,CirB.bmp,Self,Bad,Self,Yes,m,n,0,92
4141,19,right,female,9,15,他人,CirB.bmp,Self,Bad,Other,No,m,m,1,350
4141,19,right,female,9,16,自己,SqrG.bmp,Other,Good,Self,No,m,m,1,617
4141,19,right,female,9,17,他人,SqrG.bmp,Other,Good,Other,Yes,m,n,0,886
4141,19,right,female,9,18,自己,CirN.bmp,Self,Normal,Self,Yes,m,n,0,517
4141,19,right,female,9,19,自己,SqrB.bmp,Other,Bad,Self,No,m,m,1,343
4141,19,right,female,9,20,他人,CirN.bmp,Self,Normal,Other,No,m,m,1,364
4141,19,right,female,9,21,他人,SqrN.bmp,Other,Normal,Other,Yes,m,n,0,664
4141,19,right,female,9,22,自己,SqrN.bmp,Other,Normal,Self,No,m,m,1,321
4141,19,right,female,9,23,自己,CirG.bmp,Self,Good,Self,Yes,,n,0,0
4141,19,right,female,9,24,他人,CirG.bmp,Self,Good,Other,No,m,m,1,221
4141,19,right,female,9,25,他人,SqrN.bmp,Other,Normal,Other,Yes,m,n,0,451
4141,19,right,female,9,26,自己,CirB.bmp,Self,Bad,Self,Yes,m,n,0,566
4141,19,right,female,9,27,他人,SqrB.bmp,Other,Bad,Other,Yes,m,n,0,353
4141,19,right,female,9,28,自己,CirG.bmp,Self,Good,Self,Yes,m,n,0,559
4141,19,right,female,9,29,自己,SqrB.bmp,Other,Bad,Self,No,m,m,1,454
4141,19,right,female,9,30,他人,CirG.bmp,Self,Good,Other,No,m,m,1,448
4141,19,right,female,9,31,他人,CirB.bmp,Self,Bad,Other,No,m,m,1,571
4141,19,right,female,9,32,自己,SqrG.bmp,Other,Good,Self,No,m,m,1,719
4141,19,right,female,9,33,他人,CirN.bmp,Self,Normal,Other,No,m,m,1,809
4141,19,right,female,9,34,他人,SqrG.bmp,Other,Good,Other,Yes,m,n,0,429
4141,19,right,female,9,35,自己,SqrN.bmp,Other,Normal,Self,No,m,m,1,360
4141,19,right,female,9,36,自己,CirN.bmp,Self,Normal,Self,Yes,m,n,0,274
4141,19,right,female,9,37,他人,CirG.bmp,Self,Good,Other,No,m,m,1,307
4141,19,right,female,9,38,他人,SqrB.bmp,Other,Bad,Other,Yes,,n,0,0
4141,19,right,female,9,39,自己,CirB.bmp,Self,Bad,Self,Yes,m,n,0,307
4141,19,right,female,9,40,他人,SqrG.bmp,Other,Good,Other,Yes,m,n,0,378
4141,19,right,female,9,41,他人,SqrN.bmp,Other,Normal,Other,Yes,m,n,0,412
4141,19,right,female,9,42,自己,SqrB.bmp,Other,Bad,Self,No,m,m,1,409
4141,19,right,female,9,43,自己,SqrG.bmp,Other,Good,Self,No,m,m,1,372
4141,19,right,female,9,44,自己,CirG.bmp,Self,Good,Self,Yes,m,n,0,431
4141,19,right,female,9,45,他人,CirB.bmp,Self,Bad,Other,No,m,m,1,410
4141,19,right,female,9,46,自己,CirN.bmp,Self,Normal,Self,Yes,m,n,0,299
4141,19,right,female,9,47,他人,CirN.bmp,Self,Normal,Other,No,m,m,1,258
4141,19,right,female,9,48,自己,SqrN.bmp,Other,Normal,Self,No,m,m,1,293
4141,19,right,female,9,49,自己,SqrN.bmp,Other,Normal,Self,No,m,m,1,302
4141,19,right,female,9,50,自己,SqrG.bmp,Other,Good,Self,No,m,m,1,252
4141,19,right,female,9,51,自己,CirG.bmp,Self,Good,Self,Yes,m,n,0,270
4141,19,right,female,9,52,他人,SqrG.bmp,Other,Good,Other,Yes,m,n,0,373
4141,19,right,female,9,53,自己,CirN.bmp,Self,Normal,Self,Yes,m,n,0,276
4141,19,right,female,9,54,他人,SqrB.bmp,Other,Bad,Other,Yes,,n,0,0
4141,19,right,female,9,55,自己,CirB.bmp,Self,Bad,Self,Yes,,n,0,0
4141,19,right,female,9,56,他人,SqrN.bmp,Other,Normal,Other,Yes,m,n,0,57
4141,19,right,female,9,57,自己,SqrB.bmp,Other,Bad,Self,No,m,m,1,316
4141,19,right,female,9,58,他人,CirB.bmp,Self,Bad,Other,No,m,m,1,356
4141,19,right,female,9,59,他人,CirG.bmp,Self,Good,Other,No,m,m,1,270
4141,19,right,female,9,60,他人,CirN.bmp,Self,Normal,Other,No,,m,0,0
4141,19,right,female,10,1,他人,SqrB.bmp,Other,Bad,Other,Yes,n,n,1,421
4141,19,right,female,10,2,他人,CirB.bmp,Self,Bad,Other,No,m,m,1,613
4141,19,right,female,10,3,他人,CirG.bmp,Self,Good,Other,No,n,m,0,551
4141,19,right,female,10,4,自己,CirN.bmp,Self,Normal,Self,Yes,m,n,0,351
4141,19,right,female,10,5,自己,SqrN.bmp,Other,Normal,Self,No,m,m,1,327
4141,19,right,female,10,6,他人,SqrN.bmp,Other,Normal,Other,Yes,,n,0,0
4141,19,right,female,10,7,自己,SqrG.bmp,Other,Good,Self,No,m,m,1,18
4141,19,right,female,10,8,自己,CirG.bmp,Self,Good,Self,Yes,,n,0,0
4141,19,right,female,10,9,他人,CirN.bmp,Self,Normal,Other,No,m,m,1,377
4141,19,right,female,10,10,自己,CirB.bmp,Self,Bad,Self,Yes,m,n,0,324
4141,19,right,female,10,11,自己,SqrB.bmp,Other,Bad,Self,No,m,m,1,396
4141,19,right,female,10,12,他人,SqrG.bmp,Other,Good,Other,Yes,m,n,0,350
4141,19,right,female,10,13,他人,CirB.bmp,Self,Bad,Other,No,m,m,1,396
4141,19,right,female,10,14,他人,SqrG.bmp,Other,Good,Other,Yes,m,n,0,243
4141,19,right,female,10,15,自己,SqrG.bmp,Other,Good,Self,No,m,m,1,329
4141,19,right,female,10,16,他人,CirN.bmp,Self,Normal,Other,No,m,m,1,372
4141,19,right,female,10,17,自己,SqrB.bmp,Other,Bad,Self,No,m,m,1,293
4141,19,right,female,10,18,他人,CirG.bmp,Self,Good,Other,No,m,m,1,393
4141,19,right,female,10,19,他人,SqrB.bmp,Other,Bad,Other,Yes,m,n,0,186
4141,19,right,female,10,20,自己,CirB.bmp,Self,Bad,Self,Yes,,n,0,0
4141,19,right,female,10,21,自己,CirG.bmp,Self,Good,Self,Yes,,n,0,0
4141,19,right,female,10,22,自己,SqrN.bmp,Other,Normal,Self,No,m,m,1,349
4141,19,right,female,10,23,他人,SqrN.bmp,Other,Normal,Other,Yes,m,n,0,289
4141,19,right,female,10,24,自己,CirN.bmp,Self,Normal,Self,Yes,m,n,0,250
4141,19,right,female,10,25,自己,CirB.bmp,Self,Bad,Self,Yes,,n,0,0
4141,19,right,female,10,26,他人,CirB.bmp,Self,Bad,Other,No,m,m,1,441
4141,19,right,female,10,27,他人,CirG.bmp,Self,Good,Other,No,m,m,1,464
4141,19,right,female,10,28,他人,SqrN.bmp,Other,Normal,Other,Yes,m,n,0,460
4141,19,right,female,10,29,他人,SqrG.bmp,Other,Good,Other,Yes,m,n,0,327
4141,19,right,female,10,30,他人,SqrB.bmp,Other,Bad,Other,Yes,n,n,1,417
4141,19,right,female,10,31,自己,CirG.bmp,Self,Good,Self,Yes,m,n,0,597
4141,19,right,female,10,32,自己,SqrN.bmp,Other,Normal,Self,No,n,m,0,746
4141,19,right,female,10,33,自己,SqrG.bmp,Other,Good,Self,No,m,m,1,742
4141,19,right,female,10,34,自己,CirN.bmp,Self,Normal,Self,Yes,m,n,0,827
4141,19,right,female,10,35,自己,SqrB.bmp,Other,Bad,Self,No,m,m,1,691
4141,19,right,female,10,36,他人,CirN.bmp,Self,Normal,Other,No,m,m,1,518
4141,19,right,female,10,37,他人,SqrN.bmp,Other,Normal,Other,Yes,m,n,0,438
4141,19,right,female,10,38,自己,CirG.bmp,Self,Good,Self,Yes,n,n,1,524
4141,19,right,female,10,39,自己,CirN.bmp,Self,Normal,Self,Yes,n,n,1,453
4141,19,right,female,10,40,他人,CirB.bmp,Self,Bad,Other,No,m,m,1,639
4141,19,right,female,10,41,自己,SqrB.bmp,Other,Bad,Self,No,n,m,0,789
4141,19,right,female,10,42,自己,SqrG.bmp,Other,Good,Self,No,,m,0,0
4141,19,right,female,10,43,他人,CirG.bmp,Self,Good,Other,No,,m,0,0
4141,19,right,female,10,44,他人,SqrG.bmp,Other,Good,Other,Yes,m,n,0,31
4141,19,right,female,10,45,他人,CirN.bmp,Self,Normal,Other,No,m,m,1,436
4141,19,right,female,10,46,自己,SqrN.bmp,Other,Normal,Self,No,m,m,1,791
4141,19,right,female,10,47,自己,CirB.bmp,Self,Bad,Self,Yes,m,n,0,531
4141,19,right,female,10,48,他人,SqrB.bmp,Other,Bad,Other,Yes,m,n,0,416
4141,19,right,female,10,49,自己,SqrB.bmp,Other,Bad,Self,No,m,m,1,785
4141,19,right,female,10,50,他人,SqrB.bmp,Other,Bad,Other,Yes,n,n,1,820
4141,19,right,female,10,51,他人,CirB.bmp,Self,Bad,Other,No,m,m,1,632
4141,19,right,female,10,52,自己,SqrN.bmp,Other,Normal,Self,No,m,m,1,419
4141,19,right,female,10,53,自己,CirN.bmp,Self,Normal,Self,Yes,m,n,0,838
4141,19,right,female,10,54,他人,SqrG.bmp,Other,Good,Other,Yes,m,n,0,351
4141,19,right,female,10,55,自己,CirB.bmp,Self,Bad,Self,Yes,,n,0,0
4141,19,right,female,10,56,他人,CirG.bmp,Self,Good,Other,No,m,m,1,403
4141,19,right,female,10,57,他人,SqrN.bmp,Other,Normal,Other,Yes,m,n,0,409
4141,19,right,female,10,58,自己,SqrG.bmp,Other,Good,Self,No,,m,0,0
4141,19,right,female,10,59,自己,CirG.bmp,Self,Good,Self,Yes,m,n,0,3
4141,19,right,female,10,60,他人,CirN.bmp,Self,Normal,Other,No,m,m,1,784
4141,19,right,female,11,1,自己,CirN.bmp,Self,Normal,Self,Yes,n,n,1,538
4141,19,right,female,11,2,他人,CirN.bmp,Self,Normal,Other,No,n,m,0,442
4141,19,right,female,11,3,他人,SqrG.bmp,Other,Good,Other,Yes,m,n,0,544
4141,19,right,female,11,4,自己,SqrN.bmp,Other,Normal,Self,No,m,m,1,712
4141,19,right,female,11,5,他人,CirG.bmp,Self,Good,Other,No,m,m,1,686
4141,19,right,female,11,6,自己,SqrG.bmp,Other,Good,Self,No,m,m,1,387
4141,19,right,female,11,7,他人,CirB.bmp,Self,Bad,Other,No,,m,0,0
4141,19,right,female,11,8,自己,CirG.bmp,Self,Good,Self,Yes,m,n,0,464
4141,19,right,female,11,9,他人,SqrN.bmp,Other,Normal,Other,Yes,n,n,1,879
4141,19,right,female,11,10,他人,SqrB.bmp,Other,Bad,Other,Yes,n,n,1,889
4141,19,right,female,11,11,自己,SqrB.bmp,Other,Bad,Self,No,n,m,0,760
4141,19,right,female,11,12,自己,CirB.bmp,Self,Bad,Self,Yes,n,n,1,669
4141,19,right,female,11,13,自己,CirG.bmp,Self,Good,Self,Yes,n,n,1,705
4141,19,right,female,11,14,自己,SqrB.bmp,Other,Bad,Self,No,m,m,1,486
4141,19,right,female,11,15,他人,CirB.bmp,Self,Bad,Other,No,m,m,1,873
4141,19,right,female,11,16,自己,CirB.bmp,Self,Bad,Self,Yes,n,n,1,953
4141,19,right,female,11,17,他人,SqrG.bmp,Other,Good,Other,Yes,m,n,0,774
4141,19,right,female,11,18,他人,SqrN.bmp,Other,Normal,Other,Yes,m,n,0,793
4141,19,right,female,11,19,他人,SqrB.bmp,Other,Bad,Other,Yes,n,n,1,1049
4141,19,right,female,11,20,自己,SqrG.bmp,Other,Good,Self,No,m,m,1,792
4141,19,right,female,11,21,他人,CirG.bmp,Self,Good,Other,No,m,m,1,761
4141,19,right,female,11,22,自己,SqrN.bmp,Other,Normal,Self,No,m,m,1,973
4141,19,right,female,11,23,自己,CirN.bmp,Self,Normal,Self,Yes,n,n,1,996
4141,19,right,female,11,24,他人,CirN.bmp,Self,Normal,Other,No,m,m,1,693
4141,19,right,female,11,25,他人,CirN.bmp,Self,Normal,Other,No,m,m,1,693
4141,19,right,female,11,26,自己,CirB.bmp,Self,Bad,Self,Yes,n,n,1,814
4141,19,right,female,11,27,他人,SqrG.bmp,Other,Good,Other,Yes,n,n,1,979
4141,19,right,female,11,28,他人,SqrN.bmp,Other,Normal,Other,Yes,n,n,1,935
4141,19,right,female,11,29,自己,CirG.bmp,Self,Good,Self,Yes,n,n,1,616
4141,19,right,female,11,30,自己,CirN.bmp,Self,Normal,Self,Yes,n,n,1,720
4141,19,right,female,11,31,他人,SqrB.bmp,Other,Bad,Other,Yes,m,n,0,688
4141,19,right,female,11,32,他人,CirB.bmp,Self,Bad,Other,No,m,m,1,795
4141,19,right,female,11,33,自己,SqrN.bmp,Other,Normal,Self,No,n,m,0,656
4141,19,right,female,11,34,自己,SqrG.bmp,Other,Good,Self,No,m,m,1,805
4141,19,right,female,11,35,他人,CirG.bmp,Self,Good,Other,No,m,m,1,691
4141,19,right,female,11,36,自己,SqrB.bmp,Other,Bad,Self,No,m,m,1,761
4141,19,right,female,11,37,他人,CirG.bmp,Self,Good,Other,No,,m,0,0
4141,19,right,female,11,38,自己,SqrB.bmp,Other,Bad,Self,No,m,m,1,693
4141,19,right,female,11,39,自己,SqrG.bmp,Other,Good,Self,No,m,m,1,874
4141,19,right,female,11,40,他人,SqrN.bmp,Other,Normal,Other,Yes,n,n,1,791
4141,19,right,female,11,41,他人,CirN.bmp,Self,Normal,Other,No,m,m,1,638
4141,19,right,female,11,42,他人,CirB.bmp,Self,Bad,Other,No,m,m,1,845
4141,19,right,female,11,43,自己,CirG.bmp,Self,Good,Self,Yes,n,n,1,665
4141,19,right,female,11,44,自己,CirN.bmp,Self,Normal,Self,Yes,n,n,1,628
4141,19,right,female,11,45,自己,SqrN.bmp,Other,Normal,Self,No,m,m,1,609
4141,19,right,female,11,46,他人,SqrB.bmp,Other,Bad,Other,Yes,m,n,0,630
4141,19,right,female,11,47,自己,CirB.bmp,Self,Bad,Self,Yes,n,n,1,529
4141,19,right,female,11,48,他人,SqrG.bmp,Other,Good,Other,Yes,m,n,0,633
4141,19,right,female,11,49,自己,CirG.bmp,Self,Good,Self,Yes,n,n,1,358
4141,19,right,female,11,50,自己,SqrG.bmp,Other,Good,Self,No,m,m,1,571
4141,19,right,female,11,51,自己,CirB.bmp,Self,Bad,Self,Yes,n,n,1,402
4141,19,right,female,11,52,他人,SqrG.bmp,Other,Good,Other,Yes,m,n,0,450
4141,19,right,female,11,53,他人,CirN.bmp,Self,Normal,Other,No,m,m,1,755
4141,19,right,female,11,54,他人,SqrN.bmp,Other,Normal,Other,Yes,n,n,1,924
4141,19,right,female,11,55,自己,SqrB.bmp,Other,Bad,Self,No,m,m,1,751
4141,19,right,female,11,56,自己,SqrN.bmp,Other,Normal,Self,No,m,m,1,454
4141,19,right,female,11,57,他人,CirG.bmp,Self,Good,Other,No,m,m,1,595
4141,19,right,female,11,58,他人,SqrB.bmp,Other,Bad,Other,Yes,m,n,0,454
4141,19,right,female,11,59,他人,CirB.bmp,Self,Bad,Other,No,m,m,1,475
4141,19,right,female,11,60,自己,CirN.bmp,Self,Normal,Self,Yes,n,n,1,840
4141,19,right,female,12,1,他人,CirB.bmp,Self,Bad,Other,No,,m,0,0
4141,19,right,female,12,2,他人,CirN.bmp,Self,Normal,Other,No,,m,0,0
4141,19,right,female,12,3,自己,SqrB.bmp,Other,Bad,Self,No,,m,0,0
4141,19,right,female,12,4,自己,CirB.bmp,Self,Bad,Self,Yes,,n,0,0
4141,19,right,female,12,5,自己,CirG.bmp,Self,Good,Self,Yes,,n,0,0
4141,19,right,female,12,6,他人,SqrG.bmp,Other,Good,Other,Yes,,n,0,0
4141,19,right,female,12,7,自己,SqrG.bmp,Other,Good,Self,No,m,m,1,921
4141,19,right,female,12,8,他人,CirG.bmp,Self,Good,Other,No,m,m,1,944
4141,19,right,female,12,9,他人,SqrB.bmp,Other,Bad,Other,Yes,,n,0,0
4141,19,right,female,12,10,自己,SqrN.bmp,Other,Normal,Self,No,m,m,1,700
4141,19,right,female,12,11,自己,CirN.bmp,Self,Normal,Self,Yes,m,n,0,593
4141,19,right,female,12,12,他人,SqrN.bmp,Other,Normal,Other,Yes,n,n,1,737
4141,19,right,female,12,13,自己,CirB.bmp,Self,Bad,Self,Yes,m,n,0,495
4141,19,right,female,12,14,他人,CirB.bmp,Self,Bad,Other,No,m,m,1,738
4141,19,right,female,12,15,自己,SqrG.bmp,Other,Good,Self,No,m,m,1,627
4141,19,right,female,12,16,他人,SqrN.bmp,Other,Normal,Other,Yes,n,n,1,611
4141,19,right,female,12,17,自己,CirG.bmp,Self,Good,Self,Yes,n,n,1,770
4141,19,right,female,12,18,自己,SqrN.bmp,Other,Normal,Self,No,m,m,1,438
4141,19,right,female,12,19,他人,CirG.bmp,Self,Good,Other,No,n,m,0,775
4141,19,right,female,12,20,自己,SqrB.bmp,Other,Bad,Self,No,m,m,1,775
4141,19,right,female,12,21,他人,CirN.bmp,Self,Normal,Other,No,n,m,0,730
4141,19,right,female,12,22,自己,CirN.bmp,Self,Normal,Self,Yes,m,n,0,294
4141,19,right,female,12,23,他人,SqrG.bmp,Other,Good,Other,Yes,n,n,1,241
4141,19,right,female,12,24,他人,SqrB.bmp,Other,Bad,Other,Yes,m,n,0,505
4141,19,right,female,12,25,他人,CirG.bmp,Self,Good,Other,No,n,m,0,342
4141,19,right,female,12,26,他人,SqrN.bmp,Other,Normal,Other,Yes,,n,0,0
4141,19,right,female,12,27,他人,CirN.bmp,Self,Normal,Other,No,m,m,1,96
4141,19,right,female,12,28,他人,SqrG.bmp,Other,Good,Other,Yes,m,n,0,329
4141,19,right,female,12,29,自己,CirB.bmp,Self,Bad,Self,Yes,m,n,0,336
4141,19,right,female,12,30,自己,SqrG.bmp,Other,Good,Self,No,m,m,1,403
4141,19,right,female,12,31,他人,CirB.bmp,Self,Bad,Other,No,n,m,0,789
4141,19,right,female,12,32,他人,SqrB.bmp,Other,Bad,Other,Yes,n,n,1,1061
4141,19,right,female,12,33,自己,CirG.bmp,Self,Good,Self,Yes,,n,0,0
4141,19,right,female,12,34,自己,SqrN.bmp,Other,Normal,Self,No,,m,0,0
4141,19,right,female,12,35,自己,CirN.bmp,Self,Normal,Self,Yes,,n,0,0
4141,19,right,female,12,36,自己,SqrB.bmp,Other,Bad,Self,No,m,m,1,418
4141,19,right,female,12,37,他人,CirG.bmp,Self,Good,Other,No,m,m,1,630
4141,19,right,female,12,38,自己,SqrB.bmp,Other,Bad,Self,No,n,m,0,776
4141,19,right,female,12,39,他人,SqrB.bmp,Other,Bad,Other,Yes,m,n,0,393
4141,19,right,female,12,40,他人,SqrG.bmp,Other,Good,Other,Yes,m,n,0,364
4141,19,right,female,12,41,自己,SqrN.bmp,Other,Normal,Self,No,m,m,1,279
4141,19,right,female,12,42,他人,SqrN.bmp,Other,Normal,Other,Yes,,n,0,0
4141,19,right,female,12,43,他人,CirN.bmp,Self,Normal,Other,No,,m,0,0
4141,19,right,female,12,44,自己,CirG.bmp,Self,Good,Self,Yes,,n,0,0
4141,19,right,female,12,45,他人,CirB.bmp,Self,Bad,Other,No,,m,0,0
4141,19,right,female,12,46,自己,SqrG.bmp,Other,Good,Self,No,,m,0,0
4141,19,right,female,12,47,自己,CirB.bmp,Self,Bad,Self,Yes,m,n,0,628
4141,19,right,female,12,48,自己,CirN.bmp,Self,Normal,Self,Yes,m,n,0,444
4141,19,right,female,12,49,他人,CirG.bmp,Self,Good,Other,No,n,m,0,618
4141,19,right,female,12,50,自己,SqrB.bmp,Other,Bad,Self,No,m,m,1,392
4141,19,right,female,12,51,他人,SqrG.bmp,Other,Good,Other,Yes,m,n,0,552
4141,19,right,female,12,52,他人,SqrB.bmp,Other,Bad,Other,Yes,n,n,1,661
4141,19,right,female,12,53,自己,CirN.bmp,Self,Normal,Self,Yes,m,n,0,595
4141,19,right,female,12,54,他人,CirB.bmp,Self,Bad,Other,No,n,m,0,474
4141,19,right,female,12,55,自己,SqrG.bmp,Other,Good,Self,No,m,m,1,400
4141,19,right,female,12,56,他人,SqrN.bmp,Other,Normal,Other,Yes,m,n,0,518
4141,19,right,female,12,57,自己,CirG.bmp,Self,Good,Self,Yes,n,n,1,379
4141,19,right,female,12,58,自己,CirB.bmp,Self,Bad,Self,Yes,n,n,1,788
4141,19,right,female,12,59,自己,SqrN.bmp,Other,Normal,Self,No,m,m,1,500
4141,19,right,female,12,60,他人,CirN.bmp,Self,Normal,Other,No,n,m,0,588
4142,19,right,female,,1,自己,CirN.bmp,Other,Normal,Self,No,n,n,1,1013
4142,19,right,female,,2,他人,SqrB.bmp,Self,Bad,Other,No,,n,0,0
4142,19,right,female,,3,他人,CirB.bmp,Other,Bad,Other,Yes,m,m,1,1034
4142,19,right,female,,4,自己,SqrG.bmp,Self,Good,Self,Yes,n,m,0,956
4142,19,right,female,,5,自己,SqrB.bmp,Self,Bad,Self,Yes,m,m,1,892
4142,19,right,female,,6,他人,CirN.bmp,Other,Normal,Other,Yes,n,m,0,785
4142,19,right,female,,7,他人,SqrG.bmp,Self,Good,Other,No,,n,0,0
4142,19,right,female,,8,他人,SqrN.bmp,Self,Normal,Other,No,,n,0,0
4142,19,right,female,,9,自己,SqrN.bmp,Self,Normal,Self,Yes,m,m,1,1099
4142,19,right,female,,10,自己,CirB.bmp,Other,Bad,Self,No,,n,0,0
4142,19,right,female,,11,他人,CirG.bmp,Other,Good,Other,Yes,m,m,1,922
4142,19,right,female,,12,自己,CirG.bmp,Other,Good,Self,No,,n,0,0
4142,19,right,female,,13,他人,CirB.bmp,Other,Bad,Other,Yes,m,m,1,1097
4142,19,right,female,,14,自己,SqrN.bmp,Self,Normal,Self,Yes,,m,0,0
4142,19,right,female,,15,他人,SqrB.bmp,Self,Bad,Other,No,,n,0,0
4142,19,right,female,,16,他人,CirN.bmp,Other,Normal,Other,Yes,,m,0,0
4142,19,right,female,,17,自己,CirG.bmp,Other,Good,Self,No,n,n,1,901
4142,19,right,female,,18,他人,CirG.bmp,Other,Good,Other,Yes,,m,0,0
4142,19,right,female,,19,他人,SqrN.bmp,Self,Normal,Other,No,,n,0,0
4142,19,right,female,,20,自己,CirN.bmp,Other,Normal,Self,No,,n,0,0
4142,19,right,female,,21,自己,CirB.bmp,Other,Bad,Self,No,,n,0,0
4142,19,right,female,,22,他人,SqrG.bmp,Self,Good,Other,No,n,n,1,960
4142,19,right,female,,23,自己,SqrG.bmp,Self,Good,Self,Yes,m,m,1,728
4142,19,right,female,,24,自己,SqrB.bmp,Self,Bad,Self,Yes,m,m,1,512
4142,19,right,female,,25,他人,CirB.bmp,Other,Bad,Other,Yes,,m,0,0
4142,19,right,female,,26,他人,CirG.bmp,Other,Good,Other,Yes,m,m,1,795
4142,19,right,female,,27,他人,SqrB.bmp,Self,Bad,Other,No,n,n,1,954
4142,19,right,female,,28,他人,CirN.bmp,Other,Normal,Other,Yes,,m,0,0
4142,19,right,female,,29,自己,SqrG.bmp,Self,Good,Self,Yes,m,m,1,919
4142,19,right,female,,30,自己,CirN.bmp,Other,Normal,Self,No,m,n,0,523
4142,19,right,female,,31,自己,CirB.bmp,Other,Bad,Self,No,m,n,0,700
4142,19,right,female,,32,自己,SqrN.bmp,Self,Normal,Self,Yes,,m,0,0
4142,19,right,female,,33,他人,SqrG.bmp,Self,Good,Other,No,,n,0,0
4142,19,right,female,,34,他人,SqrN.bmp,Self,Normal,Other,No,n,n,1,370
4142,19,right,female,,35,自己,CirG.bmp,Other,Good,Self,No,m,n,0,914
4142,19,right,female,,36,自己,SqrB.bmp,Self,Bad,Self,Yes,,m,0,0
4142,19,right,female,,37,自己,CirG.bmp,Other,Good,Self,No,n,n,1,795
4142,19,right,female,,38,他人,SqrN.bmp,Self,Normal,Other,No,m,n,0,1076
4142,19,right,female,,39,他人,CirB.bmp,Other,Bad,Other,Yes,n,m,0,38
4142,19,right,female,,40,自己,SqrG.bmp,Self,Good,Self,Yes,m,m,1,985
4142,19,right,female,,41,自己,CirB.bmp,Other,Bad,Self,No,n,n,1,863
4142,19,right,female,,42,他人,CirN.bmp,Other,Normal,Other,Yes,m,m,1,1034
4142,19,right,female,,43,自己,CirN.bmp,Other,Normal,Self,No,,n,0,0
4142,19,right,female,,44,他人,SqrB.bmp,Self,Bad,Other,No,n,n,1,1093
4142,19,right,female,,45,自己,SqrB.bmp,Self,Bad,Self,Yes,m,m,1,743
4142,19,right,female,,46,他人,CirG.bmp,Other,Good,Other,Yes,,m,0,0
4142,19,right,female,,47,他人,SqrG.bmp,Self,Good,Other,No,n,n,1,920
4142,19,right,female,,48,自己,SqrN.bmp,Self,Normal,Self,Yes,m,m,1,926
4142,19,right,female,,49,自己,CirN.bmp,Other,Normal,Self,No,n,n,1,1055
4142,19,right,female,,50,他人,SqrG.bmp,Self,Good,Other,No,,n,0,0
4142,19,right,female,,51,他人,SqrN.bmp,Self,Normal,Other,No,n,n,1,323
4142,19,right,female,,52,自己,SqrN.bmp,Self,Normal,Self,Yes,,m,0,0
4142,19,right,female,,53,他人,CirB.bmp,Other,Bad,Other,Yes,,m,0,0
4142,19,right,female,,54,他人,CirN.bmp,Other,Normal,Other,Yes,,m,0,0
4142,19,right,female,,55,自己,CirB.bmp,Other,Bad,Self,No,n,n,1,814
4142,19,right,female,,56,他人,SqrB.bmp,Self,Bad,Other,No,,n,0,0
4142,19,right,female,,57,自己,CirG.bmp,Other,Good,Self,No,m,n,0,880
4142,19,right,female,,58,自己,SqrG.bmp,Self,Good,Self,Yes,m,m,1,893
4142,19,right,female,,59,自己,SqrB.bmp,Self,Bad,Self,Yes,m,m,1,636
4142,19,right,female,,60,他人,CirG.bmp,Other,Good,Other,Yes,m,m,1,740
4142,19,right,female,,61,他人,CirB.bmp,Other,Bad,Other,Yes,,m,0,0
4142,19,right,female,,62,他人,CirG.bmp,Other,Good,Other,Yes,m,m,1,477
4142,19,right,female,,63,他人,CirN.bmp,Other,Normal,Other,Yes,m,m,1,681
4142,19,right,female,,64,他人,SqrB.bmp,Self,Bad,Other,No,n,n,1,620
4142,19,right,female,,65,自己,SqrG.bmp,Self,Good,Self,Yes,m,m,1,657
4142,19,right,female,,66,自己,SqrB.bmp,Self,Bad,Self,Yes,m,m,1,437
4142,19,right,female,,67,自己,SqrN.bmp,Self,Normal,Self,Yes,m,m,1,375
4142,19,right,female,,68,自己,CirN.bmp,Other,Normal,Self,No,n,n,1,928
4142,19,right,female,,69,自己,CirB.bmp,Other,Bad,Self,No,n,n,1,878
4142,19,right,female,,70,他人,SqrG.bmp,Self,Good,Other,No,n,n,1,1053
4142,19,right,female,,71,他人,SqrN.bmp,Self,Normal,Other,No,n,n,1,801
4142,19,right,female,,72,自己,CirG.bmp,Other,Good,Self,No,,n,0,0
4142,19,right,female,1,1,自己,CirB.bmp,Other,Bad,Self,No,,n,0,0
4142,19,right,female,1,2,自己,CirG.bmp,Other,Good,Self,No,,n,0,0
4142,19,right,female,1,3,自己,SqrG.bmp,Self,Good,Self,Yes,,m,0,0
4142,19,right,female,1,4,他人,CirB.bmp,Other,Bad,Other,Yes,m,m,1,929
4142,19,right,female,1,5,他人,SqrG.bmp,Self,Good,Other,No,,n,0,0
4142,19,right,female,1,6,自己,SqrN.bmp,Self,Normal,Self,Yes,n,m,0,78
4142,19,right,female,1,7,他人,SqrB.bmp,Self,Bad,Other,No,n,n,1,1080
4142,19,right,female,1,8,自己,SqrB.bmp,Self,Bad,Self,Yes,,m,0,0
4142,19,right,female,1,9,他人,SqrN.bmp,Self,Normal,Other,No,n,n,1,762
4142,19,right,female,1,10,他人,CirN.bmp,Other,Normal,Other,Yes,n,m,0,807
4142,19,right,female,1,11,他人,CirG.bmp,Other,Good,Other,Yes,m,m,1,797
4142,19,right,female,1,12,自己,CirN.bmp,Other,Normal,Self,No,m,n,0,537
4142,19,right,female,1,13,自己,CirN.bmp,Other,Normal,Self,No,m,n,0,809
4142,19,right,female,1,14,他人,CirN.bmp,Other,Normal,Other,Yes,,m,0,0
4142,19,right,female,1,15,他人,SqrN.bmp,Self,Normal,Other,No,,n,0,0
4142,19,right,female,1,16,自己,SqrG.bmp,Self,Good,Self,Yes,m,m,1,666
4142,19,right,female,1,17,自己,SqrN.bmp,Self,Normal,Self,Yes,m,m,1,448
4142,19,right,female,1,18,他人,SqrB.bmp,Self,Bad,Other,No,n,n,1,1019
4142,19,right,female,1,19,他人,CirG.bmp,Other,Good,Other,Yes,n,m,0,852
4142,19,right,female,1,20,自己,CirB.bmp,Other,Bad,Self,No,n,n,1,885
4142,19,right,female,1,21,自己,SqrB.bmp,Self,Bad,Self,Yes,m,m,1,611
4142,19,right,female,1,22,他人,SqrG.bmp,Self,Good,Other,No,n,n,1,1068
4142,19,right,female,1,23,他人,CirB.bmp,Other,Bad,Other,Yes,,m,0,0
4142,19,right,female,1,24,自己,CirG.bmp,Other,Good,Self,No,n,n,1,1017
4142,19,right,female,1,25,自己,SqrG.bmp,Self,Good,Self,Yes,,m,0,0
4142,19,right,female,1,26,他人,SqrB.bmp,Self,Bad,Other,No,,n,0,0
4142,19,right,female,1,27,他人,CirB.bmp,Other,Bad,Other,Yes,n,m,0,970
4142,19,right,female,1,28,他人,SqrG.bmp,Self,Good,Other,No,n,n,1,882
4142,19,right,female,1,29,自己,CirG.bmp,Other,Good,Self,No,m,n,0,600
4142,19,right,female,1,30,他人,CirN.bmp,Other,Normal,Other,Yes,m,m,1,1057
4142,19,right,female,1,31,他人,SqrN.bmp,Self,Normal,Other,No,n,n,1,897
4142,19,right,female,1,32,自己,CirN.bmp,Other,Normal,Self,No,n,n,1,978
4142,19,right,female,1,33,自己,CirB.bmp,Other,Bad,Self,No,,n,0,0
4142,19,right,female,1,34,自己,SqrB.bmp,Self,Bad,Self,Yes,m,m,1,836
4142,19,right,female,1,35,他人,CirG.bmp,Other,Good,Other,Yes,n,m,0,703
4142,19,right,female,1,36,自己,SqrN.bmp,Self,Normal,Self,Yes,m,m,1,598
4142,19,right,female,1,37,他人,CirB.bmp,Other,Bad,Other,Yes,m,m,1,561
4142,19,right,female,1,38,他人,SqrG.bmp,Self,Good,Other,No,m,n,0,980
4142,19,right,female,1,39,自己,SqrG.bmp,Self,Good,Self,Yes,m,m,1,804
4142,19,right,female,1,40,他人,SqrN.bmp,Self,Normal,Other,No,,n,0,0
4142,19,right,female,1,41,他人,SqrB.bmp,Self,Bad,Other,No,n,n,1,799
4142,19,right,female,1,42,他人,CirG.bmp,Other,Good,Other,Yes,m,m,1,530
4142,19,right,female,1,43,自己,SqrB.bmp,Self,Bad,Self,Yes,m,m,1,707
4142,19,right,female,1,44,自己,CirN.bmp,Other,Normal,Self,No,n,n,1,736
4142,19,right,female,1,45,自己,CirG.bmp,Other,Good,Self,No,,n,0,0
4142,19,right,female,1,46,他人,CirN.bmp,Other,Normal,Other,Yes,n,m,0,701
4142,19,right,female,1,47,自己,CirB.bmp,Other,Bad,Self,No,,n,0,0
4142,19,right,female,1,48,自己,SqrN.bmp,Self,Normal,Self,Yes,m,m,1,785
4142,19,right,female,1,49,他人,SqrB.bmp,Self,Bad,Other,No,,n,0,0
4142,19,right,female,1,50,他人,SqrG.bmp,Self,Good,Other,No,n,n,1,989
4142,19,right,female,1,51,自己,SqrG.bmp,Self,Good,Self,Yes,m,m,1,764
4142,19,right,female,1,52,自己,CirN.bmp,Other,Normal,Self,No,n,n,1,738
4142,19,right,female,1,53,自己,CirB.bmp,Other,Bad,Self,No,,n,0,0
4142,19,right,female,1,54,自己,SqrB.bmp,Self,Bad,Self,Yes,m,m,1,881
4142,19,right,female,1,55,他人,CirN.bmp,Other,Normal,Other,Yes,n,m,0,753
4142,19,right,female,1,56,自己,CirG.bmp,Other,Good,Self,No,m,n,0,946
4142,19,right,female,1,57,自己,SqrN.bmp,Self,Normal,Self,Yes,m,m,1,972
4142,19,right,female,1,58,他人,CirB.bmp,Other,Bad,Other,Yes,m,m,1,869
4142,19,right,female,1,59,他人,SqrN.bmp,Self,Normal,Other,No,m,n,0,505
4142,19,right,female,1,60,他人,CirG.bmp,Other,Good,Other,Yes,,m,0,0
4142,19,right,female,2,1,他人,CirB.bmp,Other,Bad,Other,Yes,m,m,1,944
4142,19,right,female,2,2,他人,SqrN.bmp,Self,Normal,Other,No,,n,0,0
4142,19,right,female,2,3,他人,CirG.bmp,Other,Good,Other,Yes,m,m,1,879
4142,19,right,female,2,4,他人,SqrB.bmp,Self,Bad,Other,No,n,n,1,762
4142,19,right,female,2,5,自己,SqrB.bmp,Self,Bad,Self,Yes,m,m,1,403
4142,19,right,female,2,6,自己,CirN.bmp,Other,Normal,Self,No,n,n,1,552
4142,19,right,female,2,7,自己,CirG.bmp,Other,Good,Self,No,m,n,0,674
4142,19,right,female,2,8,他人,CirN.bmp,Other,Normal,Other,Yes,m,m,1,902
4142,19,right,female,2,9,自己,SqrN.bmp,Self,Normal,Self,Yes,m,m,1,683
4142,19,right,female,2,10,自己,SqrG.bmp,Self,Good,Self,Yes,m,m,1,457
4142,19,right,female,2,11,他人,SqrG.bmp,Self,Good,Other,No,n,n,1,623
4142,19,right,female,2,12,自己,CirB.bmp,Other,Bad,Self,No,n,n,1,844
4142,19,right,female,2,13,自己,CirG.bmp,Other,Good,Self,No,n,n,1,671
4142,19,right,female,2,14,他人,CirN.bmp,Other,Normal,Other,Yes,,m,0,0
4142,19,right,female,2,15,他人,SqrB.bmp,Self,Bad,Other,No,n,n,1,1063
4142,19,right,female,2,16,他人,CirB.bmp,Other,Bad,Other,Yes,n,m,0,954
4142,19,right,female,2,17,自己,CirB.bmp,Other,Bad,Self,No,m,n,0,680
4142,19,right,female,2,18,自己,SqrB.bmp,Self,Bad,Self,Yes,m,m,1,823
4142,19,right,female,2,19,自己,SqrN.bmp,Self,Normal,Self,Yes,m,m,1,841
4142,19,right,female,2,20,他人,SqrN.bmp,Self,Normal,Other,No,n,n,1,795
4142,19,right,female,2,21,自己,CirN.bmp,Other,Normal,Self,No,n,n,1,901
4142,19,right,female,2,22,他人,SqrG.bmp,Self,Good,Other,No,,n,0,0
4142,19,right,female,2,23,自己,SqrG.bmp,Self,Good,Self,Yes,,m,0,0
4142,19,right,female,2,24,他人,CirG.bmp,Other,Good,Other,Yes,n,m,0,472
4142,19,right,female,2,25,自己,SqrB.bmp,Self,Bad,Self,Yes,,m,0,0
4142,19,right,female,2,26,自己,SqrN.bmp,Self,Normal,Self,Yes,m,m,1,927
4142,19,right,female,2,27,自己,CirN.bmp,Other,Normal,Self,No,,n,0,0
4142,19,right,female,2,28,他人,CirG.bmp,Other,Good,Other,Yes,n,m,0,748
4142,19,right,female,2,29,自己,CirB.bmp,Other,Bad,Self,No,,n,0,0
4142,19,right,female,2,30,他人,SqrG.bmp,Self,Good,Other,No,m,n,0,808
4142,19,right,female,2,31,自己,SqrG.bmp,Self,Good,Self,Yes,m,m,1,996
4142,19,right,female,2,32,他人,CirB.bmp,Other,Bad,Other,Yes,n,m,0,794
4142,19,right,female,2,33,他人,SqrN.bmp,Self,Normal,Other,No,,n,0,0
4142,19,right,female,2,34,自己,CirG.bmp,Other,Good,Self,No,n,n,1,694
4142,19,right,female,2,35,他人,SqrB.bmp,Self,Bad,Other,No,n,n,1,688
4142,19,right,female,2,36,他人,CirN.bmp,Other,Normal,Other,Yes,,m,0,0
4142,19,right,female,2,37,他人,CirN.bmp,Other,Normal,Other,Yes,,m,0,0
4142,19,right,female,2,38,他人,SqrG.bmp,Self,Good,Other,No,,n,0,0
4142,19,right,female,2,39,自己,CirG.bmp,Other,Good,Self,No,n,n,1,882
4142,19,right,female,2,40,自己,CirN.bmp,Other,Normal,Self,No,n,n,1,839
4142,19,right,female,2,41,他人,SqrN.bmp,Self,Normal,Other,No,,n,0,0
4142,19,right,female,2,42,自己,CirB.bmp,Other,Bad,Self,No,n,n,1,877
4142,19,right,female,2,43,他人,CirG.bmp,Other,Good,Other,Yes,,m,0,0
4142,19,right,female,2,44,他人,SqrB.bmp,Self,Bad,Other,No,,n,0,0
4142,19,right,female,2,45,自己,SqrB.bmp,Self,Bad,Self,Yes,,m,0,0
4142,19,right,female,2,46,自己,SqrN.bmp,Self,Normal,Self,Yes,,m,0,0
4142,19,right,female,2,47,自己,SqrG.bmp,Self,Good,Self,Yes,m,m,1,850
4142,19,right,female,2,48,他人,CirB.bmp,Other,Bad,Other,Yes,n,m,0,635
4142,19,right,female,2,49,自己,CirN.bmp,Other,Normal,Self,No,,n,0,0
4142,19,right,female,2,50,自己,SqrG.bmp,Self,Good,Self,Yes,m,m,1,644
4142,19,right,female,2,51,他人,CirN.bmp,Other,Normal,Other,Yes,,m,0,0
4142,19,right,female,2,52,自己,CirB.bmp,Other,Bad,Self,No,n,n,1,743
4142,19,right,female,2,53,他人,SqrN.bmp,Self,Normal,Other,No,n,n,1,769
4142,19,right,female,2,54,自己,SqrN.bmp,Self,Normal,Self,Yes,,m,0,0
4142,19,right,female,2,55,自己,SqrB.bmp,Self,Bad,Self,Yes,m,m,1,600
4142,19,right,female,2,56,自己,CirG.bmp,Other,Good,Self,No,n,n,1,1046
4142,19,right,female,2,57,他人,CirB.bmp,Other,Bad,Other,Yes,,m,0,0
4142,19,right,female,2,58,他人,SqrG.bmp,Self,Good,Other,No,,n,0,0
4142,19,right,female,2,59,他人,CirG.bmp,Other,Good,Other,Yes,,m,0,0
4142,19,right,female,2,60,他人,SqrB.bmp,Self,Bad,Other,No,n,n,1,660
4142,19,right,female,3,1,自己,CirG.bmp,Other,Good,Self,No,n,n,1,938
4142,19,right,female,3,2,自己,SqrG.bmp,Self,Good,Self,Yes,,m,0,0
4142,19,right,female,3,3,他人,CirB.bmp,Other,Bad,Other,Yes,n,m,0,620
4142,19,right,female,3,4,他人,SqrB.bmp,Self,Bad,Other,No,,n,0,0
4142,19,right,female,3,5,他人,CirG.bmp,Other,Good,Other,Yes,,m,0,0
4142,19,right,female,3,6,他人,SqrN.bmp,Self,Normal,Other,No,,n,0,0
4142,19,right,female,3,7,他人,SqrG.bmp,Self,Good,Other,No,,n,0,0
4142,19,right,female,3,8,自己,SqrN.bmp,Self,Normal,Self,Yes,m,m,1,794
4142,19,right,female,3,9,自己,CirN.bmp,Other,Normal,Self,No,n,n,1,763
4142,19,right,female,3,10,自己,CirB.bmp,Other,Bad,Self,No,n,n,1,703
4142,19,right,female,3,11,自己,SqrB.bmp,Self,Bad,Self,Yes,m,m,1,830
4142,19,right,female,3,12,他人,CirN.bmp,Other,Normal,Other,Yes,n,m,0,636
4142,19,right,female,3,13,自己,CirG.bmp,Other,Good,Self,No,m,n,0,750
4142,19,right,female,3,14,他人,CirB.bmp,Other,Bad,Other,Yes,n,m,0,834
4142,19,right,female,3,15,自己,SqrB.bmp,Self,Bad,Self,Yes,m,m,1,653
4142,19,right,female,3,16,他人,CirG.bmp,Other,Good,Other,Yes,,m,0,0
4142,19,right,female,3,17,自己,SqrG.bmp,Self,Good,Self,Yes,,m,0,0
4142,19,right,female,3,18,他人,SqrN.bmp,Self,Normal,Other,No,m,n,0,750
4142,19,right,female,3,19,自己,CirN.bmp,Other,Normal,Self,No,,n,0,0
4142,19,right,female,3,20,他人,SqrB.bmp,Self,Bad,Other,No,n,n,1,836
4142,19,right,female,3,21,自己,SqrN.bmp,Self,Normal,Self,Yes,m,m,1,808
4142,19,right,female,3,22,他人,CirN.bmp,Other,Normal,Other,Yes,,m,0,0
4142,19,right,female,3,23,自己,CirB.bmp,Other,Bad,Self,No,n,n,1,780
4142,19,right,female,3,24,他人,SqrG.bmp,Self,Good,Other,No,m,n,0,623
4142,19,right,female,3,25,他人,CirG.bmp,Other,Good,Other,Yes,n,m,0,693
4142,19,right,female,3,26,自己,SqrB.bmp,Self,Bad,Self,Yes,m,m,1,737
4142,19,right,female,3,27,他人,SqrG.bmp,Self,Good,Other,No,,n,0,0
4142,19,right,female,3,28,自己,SqrG.bmp,Self,Good,Self,Yes,,m,0,0
4142,19,right,female,3,29,他人,CirB.bmp,Other,Bad,Other,Yes,m,m,1,863
4142,19,right,female,3,30,自己,CirB.bmp,Other,Bad,Self,No,m,n,0,510
4142,19,right,female,3,31,自己,CirN.bmp,Other,Normal,Self,No,n,n,1,1072
4142,19,right,female,3,32,自己,CirG.bmp,Other,Good,Self,No,,n,0,0
4142,19,right,female,3,33,他人,SqrB.bmp,Self,Bad,Other,No,,n,0,0
4142,19,right,female,3,34,他人,CirN.bmp,Other,Normal,Other,Yes,n,m,0,304
4142,19,right,female,3,35,自己,SqrN.bmp,Self,Normal,Self,Yes,,m,0,0
4142,19,right,female,3,36,他人,SqrN.bmp,Self,Normal,Other,No,n,n,1,966
4142,19,right,female,3,37,他人,SqrN.bmp,Self,Normal,Other,No,,n,0,0
4142,19,right,female,3,38,自己,SqrN.bmp,Self,Normal,Self,Yes,,m,0,0
4142,19,right,female,3,39,自己,SqrB.bmp,Self,Bad,Self,Yes,m,m,1,590
4142,19,right,female,3,40,他人,SqrG.bmp,Self,Good,Other,No,n,n,1,793
4142,19,right,female,3,41,他人,CirB.bmp,Other,Bad,Other,Yes,n,m,0,1041
4142,19,right,female,3,42,他人,CirN.bmp,Other,Normal,Other,Yes,,m,0,0
4142,19,right,female,3,43,自己,SqrG.bmp,Self,Good,Self,Yes,m,m,1,803
4142,19,right,female,3,44,自己,CirB.bmp,Other,Bad,Self,No,,n,0,0
4142,19,right,female,3,45,自己,CirN.bmp,Other,Normal,Self,No,m,n,0,638
4142,19,right,female,3,46,他人,SqrB.bmp,Self,Bad,Other,No,,n,0,0
4142,19,right,female,3,47,自己,CirG.bmp,Other,Good,Self,No,n,n,1,956
4142,19,right,female,3,48,他人,CirG.bmp,Other,Good,Other,Yes,,m,0,0
4142,19,right,female,3,49,他人,CirB.bmp,Other,Bad,Other,Yes,,m,0,0
4142,19,right,female,3,50,自己,CirB.bmp,Other,Bad,Self,No,,n,0,0
4142,19,right,female,3,51,他人,CirG.bmp,Other,Good,Other,Yes,,m,0,0
4142,19,right,female,3,52,自己,CirN.bmp,Other,Normal,Self,No,,n,0,0
4142,19,right,female,3,53,自己,CirG.bmp,Other,Good,Self,No,n,n,1,853
4142,19,right,female,3,54,他人,SqrB.bmp,Self,Bad,Other,No,n,n,1,843
4142,19,right,female,3,55,自己,SqrN.bmp,Self,Normal,Self,Yes,,m,0,0
4142,19,right,female,3,56,他人,CirN.bmp,Other,Normal,Other,Yes,m,m,1,962
4142,19,right,female,3,57,自己,SqrB.bmp,Self,Bad,Self,Yes,,m,0,0
4142,19,right,female,3,58,他人,SqrN.bmp,Self,Normal,Other,No,,n,0,0
4142,19,right,female,3,59,他人,SqrG.bmp,Self,Good,Other,No,,n,0,0
4142,19,right,female,3,60,自己,SqrG.bmp,Self,Good,Self,Yes,m,m,1,1054
4142,19,right,female,4,1,自己,CirN.bmp,Other,Normal,Self,No,,n,0,0
4142,19,right,female,4,2,自己,SqrB.bmp,Self,Bad,Self,Yes,,m,0,0
4142,19,right,female,4,3,自己,SqrG.bmp,Self,Good,Self,Yes,,m,0,0
4142,19,right,female,4,4,他人,CirB.bmp,Other,Bad,Other,Yes,,m,0,0
4142,19,right,female,4,5,他人,SqrG.bmp,Self,Good,Other,No,,n,0,0
4142,19,right,female,4,6,自己,CirG.bmp,Other,Good,Self,No,n,n,1,1028
4142,19,right,female,4,7,他人,SqrN.bmp,Self,Normal,Other,No,,n,0,0
4142,19,right,female,4,8,他人,CirN.bmp,Other,Normal,Other,Yes,,m,0,0
4142,19,right,female,4,9,自己,SqrN.bmp,Self,Normal,Self,Yes,,m,0,0
4142,19,right,female,4,10,他人,CirG.bmp,Other,Good,Other,Yes,,m,0,0
4142,19,right,female,4,11,自己,CirB.bmp,Other,Bad,Self,No,m,n,0,442
4142,19,right,female,4,12,他人,SqrB.bmp,Self,Bad,Other,No,,n,0,0
4142,19,right,female,4,13,自己,SqrG.bmp,Self,Good,Self,Yes,n,m,0,485
4142,19,right,female,4,14,自己,CirN.bmp,Other,Normal,Self,No,n,n,1,798
4142,19,right,female,4,15,他人,SqrG.bmp,Self,Good,Other,No,n,n,1,842
4142,19,right,female,4,16,他人,CirN.bmp,Other,Normal,Other,Yes,m,m,1,924
4142,19,right,female,4,17,自己,CirB.bmp,Other,Bad,Self,No,n,n,1,769
4142,19,right,female,4,18,他人,SqrN.bmp,Self,Normal,Other,No,,n,0,0
4142,19,right,female,4,19,自己,SqrN.bmp,Self,Normal,Self,Yes,,m,0,0
4142,19,right,female,4,20,他人,CirG.bmp,Other,Good,Other,Yes,n,m,0,614
4142,19,right,female,4,21,自己,CirG.bmp,Other,Good,Self,No,n,n,1,754
4142,19,right,female,4,22,他人,CirB.bmp,Other,Bad,Other,Yes,,m,0,0
4142,19,right,female,4,23,自己,SqrB.bmp,Self,Bad,Self,Yes,,m,0,0
4142,19,right,female,4,24,他人,SqrB.bmp,Self,Bad,Other,No,,n,0,0
4142,19,right,female,4,25,自己,CirB.bmp,Other,Bad,Self,No,n,n,1,939
4142,19,right,female,4,26,自己,CirG.bmp,Other,Good,Self,No,,n,0,0
4142,19,right,female,4,27,他人,SqrB.bmp,Self,Bad,Other,No,n,n,1,785
4142,19,right,female,4,28,他人,CirG.bmp,Other,Good,Other,Yes,,m,0,0
4142,19,right,female,4,29,他人,CirB.bmp,Other,Bad,Other,Yes,,m,0,0
4142,19,right,female,4,30,他人,SqrG.bmp,Self,Good,Other,No,n,n,1,666
4142,19,right,female,4,31,他人,SqrN.bmp,Self,Normal,Other,No,,n,0,0
4142,19,right,female,4,32,自己,CirN.bmp,Other,Normal,Self,No,,n,0,0
4142,19,right,female,4,33,他人,CirN.bmp,Other,Normal,Other,Yes,,m,0,0
4142,19,right,female,4,34,自己,SqrG.bmp,Self,Good,Self,Yes,,m,0,0
4142,19,right,female,4,35,自己,SqrB.bmp,Self,Bad,Self,Yes,m,m,1,482
4142,19,right,female,4,36,自己,SqrN.bmp,Self,Normal,Self,Yes,,m,0,0
4142,19,right,female,4,37,他人,CirN.bmp,Other,Normal,Other,Yes,n,m,0,715
4142,19,right,female,4,38,他人,SqrB.bmp,Self,Bad,Other,No,,n,0,0
4142,19,right,female,4,39,自己,CirN.bmp,Other,Normal,Self,No,n,n,1,744
4142,19,right,female,4,40,他人,CirB.bmp,Other,Bad,Other,Yes,,m,0,0
4142,19,right,female,4,41,自己,SqrG.bmp,Self,Good,Self,Yes,,m,0,0
4142,19,right,female,4,42,自己,CirB.bmp,Other,Bad,Self,No,n,n,1,817
4142,19,right,female,4,43,他人,CirG.bmp,Other,Good,Other,Yes,,m,0,0
4142,19,right,female,4,44,自己,CirG.bmp,Other,Good,Self,No,,n,0,0
4142,19,right,female,4,45,他人,SqrG.bmp,Self,Good,Other,No,,n,0,0
4142,19,right,female,4,46,自己,SqrN.bmp,Self,Normal,Self,Yes,,m,0,0
4142,19,right,female,4,47,自己,SqrB.bmp,Self,Bad,Self,Yes,,m,0,0
4142,19,right,female,4,48,他人,SqrN.bmp,Self,Normal,Other,No,,n,0,0
4142,19,right,female,4,49,自己,SqrN.bmp,Self,Normal,Self,Yes,,m,0,0
4142,19,right,female,4,50,自己,CirG.bmp,Other,Good,Self,No,,n,0,0
4142,19,right,female,4,51,他人,CirG.bmp,Other,Good,Other,Yes,m,m,1,578
4142,19,right,female,4,52,他人,CirB.bmp,Other,Bad,Other,Yes,m,m,1,535
4142,19,right,female,4,53,自己,SqrG.bmp,Self,Good,Self,Yes,m,m,1,656
4142,19,right,female,4,54,自己,CirB.bmp,Other,Bad,Self,No,,n,0,0
4142,19,right,female,4,55,自己,SqrB.bmp,Self,Bad,Self,Yes,m,m,1,739
4142,19,right,female,4,56,自己,CirN.bmp,Other,Normal,Self,No,n,n,1,865
4142,19,right,female,4,57,他人,SqrB.bmp,Self,Bad,Other,No,n,n,1,1048
4142,19,right,female,4,58,他人,SqrG.bmp,Self,Good,Other,No,n,n,1,1053
4142,19,right,female,4,59,他人,CirN.bmp,Other,Normal,Other,Yes,m,m,1,954
4142,19,right,female,4,60,他人,SqrN.bmp,Self,Normal,Other,No,n,n,1,857
4142,19,right,female,5,1,他人,SqrN.bmp,Self,Normal,Other,No,n,n,1,974
4142,19,right,female,5,2,自己,SqrG.bmp,Self,Good,Self,Yes,m,m,1,941
4142,19,right,female,5,3,自己,CirN.bmp,Other,Normal,Self,No,,n,0,0
4142,19,right,female,5,4,自己,CirB.bmp,Other,Bad,Self,No,,n,0,0
4142,19,right,female,5,5,自己,CirG.bmp,Other,Good,Self,No,,n,0,0
4142,19,right,female,5,6,他人,CirN.bmp,Other,Normal,Other,Yes,n,m,0,931
4142,19,right,female,5,7,他人,CirB.bmp,Other,Bad,Other,Yes,,m,0,0
4142,19,right,female,5,8,自己,SqrN.bmp,Self,Normal,Self,Yes,,m,0,0
4142,19,right,female,5,9,自己,SqrB.bmp,Self,Bad,Self,Yes,m,m,1,623
4142,19,right,female,5,10,他人,SqrG.bmp,Self,Good,Other,No,n,n,1,859
4142,19,right,female,5,11,他人,CirG.bmp,Other,Good,Other,Yes,m,m,1,931
4142,19,right,female,5,12,他人,SqrB.bmp,Self,Bad,Other,No,m,n,0,511
4142,19,right,female,5,13,他人,CirB.bmp,Other,Bad,Other,Yes,,m,0,0
4142,19,right,female,5,14,他人,CirN.bmp,Other,Normal,Other,Yes,,m,0,0
4142,19,right,female,5,15,自己,CirG.bmp,Other,Good,Self,No,n,n,1,682
4142,19,right,female,5,16,他人,SqrN.bmp,Self,Normal,Other,No,m,n,0,768
4142,19,right,female,5,17,自己,SqrN.bmp,Self,Normal,Self,Yes,m,m,1,861
4142,19,right,female,5,18,他人,CirG.bmp,Other,Good,Other,Yes,m,m,1,1050
4142,19,right,female,5,19,自己,SqrB.bmp,Self,Bad,Self,Yes,n,m,0,783
4142,19,right,female,5,20,自己,SqrG.bmp,Self,Good,Self,Yes,,m,0,0
4142,19,right,female,5,21,自己,CirN.bmp,Other,Normal,Self,No,n,n,1,645
4142,19,right,female,5,22,他人,SqrB.bmp,Self,Bad,Other,No,m,n,0,596
4142,19,right,female,5,23,自己,CirB.bmp,Other,Bad,Self,No,,n,0,0
4142,19,right,female,5,24,他人,SqrG.bmp,Self,Good,Other,No,,n,0,0
