Subject,BlockNo,TrialNo,Valence,Matchness,ACC,RT,Identity,taskType,ExpNo,Self_ref
5201,1,1,1,0,1,740,NA,Person,Exp5,None
5201,1,2,1,1,1,670,NA,Person,Exp5,None
5201,1,3,2,1,1,646,NA,Person,Exp5,None
5201,1,4,0,1,1,426,NA,Person,Exp5,None
5201,1,5,1,0,1,618,NA,Person,Exp5,None
5201,1,6,1,1,0,516,NA,Person,Exp5,None
5201,1,7,2,1,1,674,NA,Person,Exp5,None
5201,1,8,0,0,1,480,NA,Person,Exp5,None
5201,1,9,0,0,1,710,NA,Person,Exp5,None
5201,1,10,2,0,1,702,NA,Person,Exp5,None
5201,1,11,0,1,1,584,NA,Person,Exp5,None
5201,1,12,2,0,1,696,NA,Person,Exp5,None
5201,1,13,1,1,1,578,NA,Person,Exp5,None
5201,1,14,2,1,1,684,NA,Person,Exp5,None
5201,1,15,0,1,1,448,NA,Person,Exp5,None
5201,1,16,2,0,1,572,NA,Person,Exp5,None
5201,1,17,0,0,1,648,NA,Person,Exp5,None
5201,1,18,1,0,1,725,NA,Person,Exp5,None
5201,1,19,2,0,1,593,NA,Person,Exp5,None
5201,1,20,1,1,0,665,NA,Person,Exp5,None
5201,1,21,0,1,1,592,NA,Person,Exp5,None
5201,1,22,0,0,1,512,NA,Person,Exp5,None
5201,1,23,1,0,1,888,NA,Person,Exp5,None
5201,1,24,2,1,1,620,NA,Person,Exp5,None
5201,1,25,2,0,1,582,NA,Person,Exp5,None
5201,1,26,1,0,1,672,NA,Person,Exp5,None
5201,1,27,1,1,1,560,NA,Person,Exp5,None
5201,1,28,2,0,1,630,NA,Person,Exp5,None
5201,1,29,2,1,1,942,NA,Person,Exp5,None
5201,1,30,1,1,1,688,NA,Person,Exp5,None
5201,1,31,0,1,1,580,NA,Person,Exp5,None
5201,1,32,0,0,1,558,NA,Person,Exp5,None
5201,1,33,1,0,1,772,NA,Person,Exp5,None
5201,1,34,2,1,0,736,NA,Person,Exp5,None
5201,1,35,0,1,1,802,NA,Person,Exp5,None
5201,1,36,0,0,1,632,NA,Person,Exp5,None
5201,1,37,0,0,1,520,NA,Person,Exp5,None
5201,1,38,2,0,1,870,NA,Person,Exp5,None
5201,1,39,1,1,1,774,NA,Person,Exp5,None
5201,1,40,2,1,1,530,NA,Person,Exp5,None
5201,1,41,0,0,1,503,NA,Person,Exp5,None
5201,1,42,0,1,1,657,NA,Person,Exp5,None
5201,1,43,0,1,1,523,NA,Person,Exp5,None
5201,1,44,1,1,0,977,NA,Person,Exp5,None
5201,1,45,1,0,1,675,NA,Person,Exp5,None
5201,1,46,2,1,1,731,NA,Person,Exp5,None
5201,1,47,2,0,1,559,NA,Person,Exp5,None
5201,1,48,1,0,1,613,NA,Person,Exp5,None
5201,1,49,2,1,1,561,NA,Person,Exp5,None
5201,1,50,2,0,1,726,NA,Person,Exp5,None
5201,1,51,0,1,1,650,NA,Person,Exp5,None
5201,1,52,2,0,1,646,NA,Person,Exp5,None
5201,1,53,0,0,1,602,NA,Person,Exp5,None
5201,1,54,1,0,0,672,NA,Person,Exp5,None
5201,1,55,1,0,1,776,NA,Person,Exp5,None
5201,1,56,2,1,1,610,NA,Person,Exp5,None
5201,1,57,1,1,0,782,NA,Person,Exp5,None
5201,1,58,1,1,1,760,NA,Person,Exp5,None
5201,1,59,0,1,1,750,NA,Person,Exp5,None
5201,1,60,0,0,1,582,NA,Person,Exp5,None
5201,2,61,2,0,1,731,NA,Person,Exp5,None
5201,2,62,2,0,1,663,NA,Person,Exp5,None
5201,2,63,0,0,1,785,NA,Person,Exp5,None
5201,2,64,0,0,1,579,NA,Person,Exp5,None
5201,2,65,2,1,1,621,NA,Person,Exp5,None
5201,2,66,1,0,1,615,NA,Person,Exp5,None
5201,2,67,2,1,1,603,NA,Person,Exp5,None
5201,2,68,0,1,1,609,NA,Person,Exp5,None
5201,2,69,1,1,1,757,NA,Person,Exp5,None
5201,2,70,0,1,1,667,NA,Person,Exp5,None
5201,2,71,1,0,1,603,NA,Person,Exp5,None
5201,2,72,1,1,1,641,NA,Person,Exp5,None
5201,2,73,2,1,1,519,NA,Person,Exp5,None
5201,2,74,0,0,1,548,NA,Person,Exp5,None
5201,2,75,2,0,0,1012,NA,Person,Exp5,None
5201,2,76,0,1,1,552,NA,Person,Exp5,None
5201,2,77,2,0,1,680,NA,Person,Exp5,None
5201,2,78,2,1,1,518,NA,Person,Exp5,None
5201,2,79,1,0,1,620,NA,Person,Exp5,None
5201,2,80,0,1,1,606,NA,Person,Exp5,None
5201,2,81,1,1,1,610,NA,Person,Exp5,None
5201,2,82,0,0,1,606,NA,Person,Exp5,None
5201,2,83,1,0,1,676,NA,Person,Exp5,None
5201,2,84,1,1,0,723,NA,Person,Exp5,None
5201,2,85,2,1,1,705,NA,Person,Exp5,None
5201,2,86,0,0,1,521,NA,Person,Exp5,None
5201,2,87,1,1,1,535,NA,Person,Exp5,None
5201,2,88,2,0,1,617,NA,Person,Exp5,None
5201,2,89,2,0,1,691,NA,Person,Exp5,None
5201,2,90,0,1,1,583,NA,Person,Exp5,None
5201,2,91,2,1,0,721,NA,Person,Exp5,None
5201,2,92,1,1,1,767,NA,Person,Exp5,None
5201,2,93,1,0,1,563,NA,Person,Exp5,None
5201,2,94,0,0,1,577,NA,Person,Exp5,None
5201,2,95,1,0,1,891,NA,Person,Exp5,None
5201,2,96,0,1,1,583,NA,Person,Exp5,None
5201,2,97,2,0,1,673,NA,Person,Exp5,None
5201,2,98,2,1,1,521,NA,Person,Exp5,None
5201,2,99,1,1,1,767,NA,Person,Exp5,None
5201,2,100,2,1,1,619,NA,Person,Exp5,None
5201,2,101,0,0,1,549,NA,Person,Exp5,None
5201,2,102,1,1,1,693,NA,Person,Exp5,None
5201,2,103,0,1,1,592,NA,Person,Exp5,None
5201,2,104,2,0,1,568,NA,Person,Exp5,None
5201,2,105,0,1,1,708,NA,Person,Exp5,None
5201,2,106,0,0,1,636,NA,Person,Exp5,None
5201,2,107,1,0,1,755,NA,Person,Exp5,None
5201,2,108,1,0,1,721,NA,Person,Exp5,None
5201,2,109,1,0,1,575,NA,Person,Exp5,None
5201,2,110,0,1,1,585,NA,Person,Exp5,None
5201,2,111,0,1,1,513,NA,Person,Exp5,None
5201,2,112,2,1,1,585,NA,Person,Exp5,None
5201,2,113,2,1,1,481,NA,Person,Exp5,None
5201,2,114,1,1,1,759,NA,Person,Exp5,None
5201,2,116,1,1,1,837,NA,Person,Exp5,None
5201,2,117,0,0,1,755,NA,Person,Exp5,None
5201,2,118,1,0,1,937,NA,Person,Exp5,None
5201,2,119,2,0,1,747,NA,Person,Exp5,None
5201,2,120,0,0,1,699,NA,Person,Exp5,None
5201,3,121,0,0,1,1008,NA,Person,Exp5,None
5201,3,122,0,1,1,771,NA,Person,Exp5,None
5201,3,123,2,0,1,623,NA,Person,Exp5,None
5201,3,124,0,1,1,601,NA,Person,Exp5,None
5201,3,125,1,1,1,655,NA,Person,Exp5,None
5201,3,126,1,0,1,529,NA,Person,Exp5,None
5201,3,127,1,1,1,829,NA,Person,Exp5,None
5201,3,128,1,0,1,557,NA,Person,Exp5,None
5201,3,129,0,0,1,659,NA,Person,Exp5,None
5201,3,130,2,1,1,621,NA,Person,Exp5,None
5201,3,131,2,1,1,479,NA,Person,Exp5,None
5201,3,132,2,0,1,541,NA,Person,Exp5,None
5201,3,133,2,0,1,655,NA,Person,Exp5,None
5201,3,134,0,0,1,585,NA,Person,Exp5,None
5201,3,135,1,1,1,457,NA,Person,Exp5,None
5201,3,136,2,1,1,491,NA,Person,Exp5,None
5201,3,137,2,1,1,941,NA,Person,Exp5,None
5201,3,138,0,0,1,559,NA,Person,Exp5,None
5201,3,139,2,0,1,645,NA,Person,Exp5,None
5201,3,140,1,0,1,833,NA,Person,Exp5,None
5201,3,141,1,0,0,655,NA,Person,Exp5,None
5201,3,142,0,1,1,449,NA,Person,Exp5,None
5201,3,143,1,1,0,661,NA,Person,Exp5,None
5201,3,144,0,1,1,648,NA,Person,Exp5,None
5201,3,145,0,1,1,492,NA,Person,Exp5,None
5201,3,146,2,1,1,792,NA,Person,Exp5,None
5201,3,147,2,1,1,414,NA,Person,Exp5,None
5201,3,148,1,1,1,688,NA,Person,Exp5,None
5201,3,149,0,0,1,700,NA,Person,Exp5,None
5201,3,150,2,0,1,766,NA,Person,Exp5,None
5201,3,151,0,1,1,625,NA,Person,Exp5,None
5201,3,152,1,0,1,697,NA,Person,Exp5,None
5201,3,153,0,0,0,867,NA,Person,Exp5,None
5201,3,154,1,1,1,579,NA,Person,Exp5,None
5201,3,155,1,0,1,557,NA,Person,Exp5,None
5201,3,156,2,0,0,1011,NA,Person,Exp5,None
5201,3,157,1,0,1,941,NA,Person,Exp5,None
5201,3,158,1,1,1,789,NA,Person,Exp5,None
5201,3,159,2,1,1,549,NA,Person,Exp5,None
5201,3,160,0,0,1,517,NA,Person,Exp5,None
5201,3,161,0,1,1,355,NA,Person,Exp5,None
5201,3,162,1,0,1,633,NA,Person,Exp5,None
5201,3,163,1,1,1,649,NA,Person,Exp5,None
5201,3,164,0,0,1,621,NA,Person,Exp5,None
5201,3,165,2,1,1,479,NA,Person,Exp5,None
5201,3,166,0,1,1,725,NA,Person,Exp5,None
5201,3,167,2,0,1,698,NA,Person,Exp5,None
5201,3,168,2,0,1,708,NA,Person,Exp5,None
5201,3,169,0,0,1,740,NA,Person,Exp5,None
5201,3,170,0,0,1,582,NA,Person,Exp5,None
5201,3,171,2,0,1,592,NA,Person,Exp5,None
5201,3,172,2,1,1,456,NA,Person,Exp5,None
5201,3,173,1,0,1,498,NA,Person,Exp5,None
5201,3,174,1,0,1,500,NA,Person,Exp5,None
5201,3,175,0,1,1,718,NA,Person,Exp5,None
5201,3,176,2,0,1,564,NA,Person,Exp5,None
5201,3,177,2,1,1,402,NA,Person,Exp5,None
5201,3,178,1,1,1,464,NA,Person,Exp5,None
5201,3,179,1,1,1,410,NA,Person,Exp5,None
5201,3,180,0,1,1,510,NA,Person,Exp5,None
5201,4,181,2,0,1,571,NA,Person,Exp5,None
5201,4,182,2,0,1,647,NA,Person,Exp5,None
5201,4,183,1,1,1,579,NA,Person,Exp5,None
5201,4,184,0,0,1,541,NA,Person,Exp5,None
5201,4,185,2,1,1,631,NA,Person,Exp5,None
5201,4,186,0,0,1,623,NA,Person,Exp5,None
5201,4,187,1,0,1,665,NA,Person,Exp5,None
5201,4,188,0,1,1,562,NA,Person,Exp5,None
5201,4,189,2,1,1,696,NA,Person,Exp5,None
5201,4,190,1,1,1,522,NA,Person,Exp5,None
5201,4,191,1,0,1,520,NA,Person,Exp5,None
5201,4,192,0,1,1,566,NA,Person,Exp5,None
5201,4,193,0,1,1,490,NA,Person,Exp5,None
5201,4,194,0,0,1,686,NA,Person,Exp5,None
5201,4,195,1,0,1,786,NA,Person,Exp5,None
5201,4,196,0,1,1,642,NA,Person,Exp5,None
5201,4,197,1,1,1,712,NA,Person,Exp5,None
5201,4,198,1,1,1,504,NA,Person,Exp5,None
5201,4,199,0,0,1,562,NA,Person,Exp5,None
5201,4,200,1,0,1,616,NA,Person,Exp5,None
5201,4,201,2,1,1,778,NA,Person,Exp5,None
5201,4,202,2,0,1,636,NA,Person,Exp5,None
5201,4,203,2,1,1,658,NA,Person,Exp5,None
5201,4,204,2,0,1,620,NA,Person,Exp5,None
5201,4,205,1,1,1,702,NA,Person,Exp5,None
5201,4,206,1,0,1,672,NA,Person,Exp5,None
5201,4,207,2,1,1,631,NA,Person,Exp5,None
5201,4,208,0,1,1,535,NA,Person,Exp5,None
5201,4,209,0,1,1,561,NA,Person,Exp5,None
5201,4,210,0,0,1,727,NA,Person,Exp5,None
5201,4,211,2,0,1,651,NA,Person,Exp5,None
5201,4,212,1,1,1,584,NA,Person,Exp5,None
5201,4,213,0,0,1,512,NA,Person,Exp5,None
5201,4,214,2,0,1,784,NA,Person,Exp5,None
5201,4,215,2,1,1,528,NA,Person,Exp5,None
5201,4,216,1,0,1,732,NA,Person,Exp5,None
5201,4,217,0,0,1,696,NA,Person,Exp5,None
5201,4,218,1,0,0,730,NA,Person,Exp5,None
5201,4,219,0,1,1,606,NA,Person,Exp5,None
5201,4,220,2,1,1,642,NA,Person,Exp5,None
5201,4,221,2,0,1,576,NA,Person,Exp5,None
5201,4,222,0,1,1,698,NA,Person,Exp5,None
5201,4,223,2,1,1,716,NA,Person,Exp5,None
5201,4,224,1,1,1,602,NA,Person,Exp5,None
5201,4,225,1,0,1,632,NA,Person,Exp5,None
5201,4,226,1,1,0,976,NA,Person,Exp5,None
5201,4,227,0,0,1,730,NA,Person,Exp5,None
5201,4,228,2,0,1,646,NA,Person,Exp5,None
5201,4,229,1,0,1,642,NA,Person,Exp5,None
5201,4,230,0,1,1,760,NA,Person,Exp5,None
5201,4,231,1,0,1,830,NA,Person,Exp5,None
5201,4,232,2,1,1,622,NA,Person,Exp5,None
5201,4,233,1,1,1,696,NA,Person,Exp5,None
5201,4,234,0,0,1,610,NA,Person,Exp5,None
5201,4,235,2,0,1,662,NA,Person,Exp5,None
5201,4,236,0,1,1,600,NA,Person,Exp5,None
5201,4,237,1,1,1,654,NA,Person,Exp5,None
5201,4,238,2,1,1,520,NA,Person,Exp5,None
5201,4,239,0,0,1,510,NA,Person,Exp5,None
5201,4,240,2,0,1,598,NA,Person,Exp5,None
5201,5,241,2,0,1,704,NA,Person,Exp5,None
5201,5,242,0,1,1,568,NA,Person,Exp5,None
5201,5,243,0,1,1,628,NA,Person,Exp5,None
5201,5,244,0,0,1,636,NA,Person,Exp5,None
5201,5,245,1,0,0,962,NA,Person,Exp5,None
5201,5,246,1,0,1,600,NA,Person,Exp5,None
5201,5,247,0,0,1,663,NA,Person,Exp5,None
5201,5,248,2,0,1,593,NA,Person,Exp5,None
5201,5,249,1,1,1,537,NA,Person,Exp5,None
5201,5,250,1,1,1,483,NA,Person,Exp5,None
5201,5,251,2,1,1,537,NA,Person,Exp5,None
5201,5,252,2,1,1,403,NA,Person,Exp5,None
5201,5,253,2,1,1,377,NA,Person,Exp5,None
5201,5,254,1,0,1,490,NA,Person,Exp5,None
5201,5,255,0,0,0,454,NA,Person,Exp5,None
5201,5,256,0,0,1,488,NA,Person,Exp5,None
5201,5,257,2,1,1,516,NA,Person,Exp5,None
5201,5,258,2,0,1,474,NA,Person,Exp5,None
5201,5,259,2,0,1,466,NA,Person,Exp5,None
5201,5,260,1,0,0,554,NA,Person,Exp5,None
5201,5,261,1,1,1,762,NA,Person,Exp5,None
5201,5,262,0,1,1,552,NA,Person,Exp5,None
5201,5,263,0,1,1,392,NA,Person,Exp5,None
5201,5,264,1,1,1,680,NA,Person,Exp5,None
5201,5,265,1,0,0,446,NA,Person,Exp5,None
5201,5,266,1,0,1,618,NA,Person,Exp5,None
5201,5,267,0,1,1,492,NA,Person,Exp5,None
5201,5,268,2,1,1,976,NA,Person,Exp5,None
5201,5,269,1,1,1,562,NA,Person,Exp5,None
5201,5,270,2,0,1,600,NA,Person,Exp5,None
5201,5,271,2,1,1,782,NA,Person,Exp5,None
5201,5,272,1,1,1,632,NA,Person,Exp5,None
5201,5,273,0,1,1,497,NA,Person,Exp5,None
5201,5,274,2,0,1,531,NA,Person,Exp5,None
5201,5,275,0,0,1,831,NA,Person,Exp5,None
5201,5,276,0,0,1,495,NA,Person,Exp5,None
5201,5,277,1,0,0,403,NA,Person,Exp5,None
5201,5,278,1,1,1,521,NA,Person,Exp5,None
5201,5,279,0,1,0,695,NA,Person,Exp5,None
5201,5,281,0,1,1,755,NA,Person,Exp5,None
5201,5,282,1,1,0,667,NA,Person,Exp5,None
5201,5,283,2,0,1,643,NA,Person,Exp5,None
5201,5,284,2,1,0,1024,NA,Person,Exp5,None
5201,5,285,0,0,1,562,NA,Person,Exp5,None
5201,5,287,0,0,1,672,NA,Person,Exp5,None
5201,5,288,2,1,1,752,NA,Person,Exp5,None
5201,5,289,0,1,1,552,NA,Person,Exp5,None
5201,5,290,2,1,0,576,NA,Person,Exp5,None
5201,5,291,2,0,1,810,NA,Person,Exp5,None
5201,5,292,1,1,1,486,NA,Person,Exp5,None
5201,5,293,1,0,1,602,NA,Person,Exp5,None
5201,5,294,0,1,1,616,NA,Person,Exp5,None
5201,5,295,1,0,1,626,NA,Person,Exp5,None
5201,5,296,2,0,1,587,NA,Person,Exp5,None
5201,5,297,0,0,1,603,NA,Person,Exp5,None
5201,5,298,1,1,1,729,NA,Person,Exp5,None
5201,5,299,0,0,1,557,NA,Person,Exp5,None
5201,5,300,2,1,1,547,NA,Person,Exp5,None
5201,6,301,0,1,1,745,NA,Person,Exp5,None
5201,6,302,1,1,1,553,NA,Person,Exp5,None
5201,6,303,2,0,1,489,NA,Person,Exp5,None
5201,6,304,2,1,1,493,NA,Person,Exp5,None
5201,6,305,2,1,1,457,NA,Person,Exp5,None
5201,6,306,1,0,1,539,NA,Person,Exp5,None
5201,6,307,1,0,1,877,NA,Person,Exp5,None
5201,6,308,0,1,1,547,NA,Person,Exp5,None
5201,6,309,0,0,1,651,NA,Person,Exp5,None
5201,6,310,1,1,1,647,NA,Person,Exp5,None
5201,6,311,2,0,1,587,NA,Person,Exp5,None
5201,6,312,0,0,1,610,NA,Person,Exp5,None
5201,6,313,2,1,1,574,NA,Person,Exp5,None
5201,6,314,2,0,1,529,NA,Person,Exp5,None
5201,6,315,0,1,1,605,NA,Person,Exp5,None
5201,6,316,2,1,1,873,NA,Person,Exp5,None
5201,6,317,0,0,1,529,NA,Person,Exp5,None
5201,6,318,1,1,1,477,NA,Person,Exp5,None
5201,6,319,0,1,1,739,NA,Person,Exp5,None
5201,6,320,0,0,1,581,NA,Person,Exp5,None
5201,6,321,2,0,1,791,NA,Person,Exp5,None
5201,6,322,1,0,1,743,NA,Person,Exp5,None
5201,6,323,1,0,1,617,NA,Person,Exp5,None
5201,6,324,1,1,1,563,NA,Person,Exp5,None
5201,6,325,1,1,1,537,NA,Person,Exp5,None
5201,6,326,0,0,1,547,NA,Person,Exp5,None
5201,6,327,0,1,0,515,NA,Person,Exp5,None
5201,6,328,2,0,1,609,NA,Person,Exp5,None
5201,6,329,2,1,1,717,NA,Person,Exp5,None
5201,6,330,0,0,1,587,NA,Person,Exp5,None
5201,6,331,1,0,1,747,NA,Person,Exp5,None
5201,6,332,0,1,1,587,NA,Person,Exp5,None
5201,6,333,1,0,1,627,NA,Person,Exp5,None
5201,6,334,2,0,1,779,NA,Person,Exp5,None
5201,6,335,2,1,1,605,NA,Person,Exp5,None
5201,6,336,1,1,1,601,NA,Person,Exp5,None
5201,6,337,2,1,1,711,NA,Person,Exp5,None
5201,6,338,2,0,1,640,NA,Person,Exp5,None
5201,6,339,1,1,1,846,NA,Person,Exp5,None
5201,6,340,2,0,1,746,NA,Person,Exp5,None
5201,6,341,0,0,1,633,NA,Person,Exp5,None
5201,6,342,0,1,1,593,NA,Person,Exp5,None
5201,6,343,0,0,1,617,NA,Person,Exp5,None
5201,6,344,1,1,1,547,NA,Person,Exp5,None
5201,6,345,1,0,1,835,NA,Person,Exp5,None
5201,6,346,0,1,1,601,NA,Person,Exp5,None
5201,6,347,1,0,1,991,NA,Person,Exp5,None
5201,6,348,2,1,1,687,NA,Person,Exp5,None
5201,6,349,0,1,1,579,NA,Person,Exp5,None
5201,6,350,0,1,1,541,NA,Person,Exp5,None
5201,6,351,0,0,1,575,NA,Person,Exp5,None
5201,6,352,2,1,1,625,NA,Person,Exp5,None
5201,6,353,2,0,1,665,NA,Person,Exp5,None
5201,6,355,1,1,0,641,NA,Person,Exp5,None
5201,6,356,2,0,1,871,NA,Person,Exp5,None
5201,6,357,0,0,1,671,NA,Person,Exp5,None
5201,6,358,1,0,1,711,NA,Person,Exp5,None
5201,6,359,1,1,1,623,NA,Person,Exp5,None
5201,6,360,2,1,1,521,NA,Person,Exp5,None
5201,1,1,0,0,1,740,NA,Emotion,Exp5,None
5201,1,2,2,0,0,990,NA,Emotion,Exp5,None
5201,1,3,2,0,1,742,NA,Emotion,Exp5,None
5201,1,4,0,1,1,582,NA,Emotion,Exp5,None
5201,1,5,1,1,1,590,NA,Emotion,Exp5,None
5201,1,6,0,1,1,606,NA,Emotion,Exp5,None
5201,1,7,1,0,0,514,NA,Emotion,Exp5,None
5201,1,8,1,1,0,720,NA,Emotion,Exp5,None
5201,1,9,0,0,0,878,NA,Emotion,Exp5,None
5201,1,10,2,1,1,668,NA,Emotion,Exp5,None
5201,1,11,2,1,1,724,NA,Emotion,Exp5,None
5201,1,12,1,0,1,624,NA,Emotion,Exp5,None
5201,1,13,2,0,1,656,NA,Emotion,Exp5,None
5201,1,14,1,1,0,706,NA,Emotion,Exp5,None
5201,1,15,0,1,1,826,NA,Emotion,Exp5,None
5201,1,16,2,1,1,594,NA,Emotion,Exp5,None
5201,1,17,0,0,1,568,NA,Emotion,Exp5,None
5201,1,18,1,0,1,660,NA,Emotion,Exp5,None
5201,1,19,1,0,1,558,NA,Emotion,Exp5,None
5201,1,20,2,0,1,740,NA,Emotion,Exp5,None
5201,1,21,0,0,1,823,NA,Emotion,Exp5,None
5201,1,22,2,1,1,654,NA,Emotion,Exp5,None
5201,1,23,1,1,1,616,NA,Emotion,Exp5,None
5201,1,24,0,1,1,586,NA,Emotion,Exp5,None
5201,1,25,1,1,0,634,NA,Emotion,Exp5,None
5201,1,26,0,1,1,592,NA,Emotion,Exp5,None
5201,1,27,1,1,1,574,NA,Emotion,Exp5,None
5201,1,28,2,1,1,440,NA,Emotion,Exp5,None
5201,1,29,2,1,1,606,NA,Emotion,Exp5,None
5201,1,30,0,0,1,626,NA,Emotion,Exp5,None
5201,1,31,2,0,0,786,NA,Emotion,Exp5,None
5201,1,32,1,0,0,866,NA,Emotion,Exp5,None
5201,1,33,0,1,1,594,NA,Emotion,Exp5,None
5201,1,34,2,0,1,672,NA,Emotion,Exp5,None
5201,1,35,0,0,1,838,NA,Emotion,Exp5,None
5201,1,36,1,0,1,724,NA,Emotion,Exp5,None
5201,1,37,0,1,1,640,NA,Emotion,Exp5,None
5201,1,38,0,0,1,654,NA,Emotion,Exp5,None
5201,1,39,2,1,1,704,NA,Emotion,Exp5,None
5201,1,40,2,0,1,656,NA,Emotion,Exp5,None
5201,1,41,1,0,1,650,NA,Emotion,Exp5,None
5201,1,42,0,0,1,750,NA,Emotion,Exp5,None
5201,1,43,1,1,1,606,NA,Emotion,Exp5,None
5201,1,44,1,1,1,587,NA,Emotion,Exp5,None
5201,1,45,1,0,1,707,NA,Emotion,Exp5,None
5201,1,46,2,0,1,595,NA,Emotion,Exp5,None
5201,1,47,0,1,1,601,NA,Emotion,Exp5,None
5201,1,48,2,1,1,943,NA,Emotion,Exp5,None
5201,1,49,0,0,1,583,NA,Emotion,Exp5,None
5201,1,50,2,1,0,614,NA,Emotion,Exp5,None
5201,1,51,1,0,1,866,NA,Emotion,Exp5,None
5201,1,53,1,1,1,658,NA,Emotion,Exp5,None
5201,1,54,0,1,1,492,NA,Emotion,Exp5,None
5201,1,55,1,0,1,670,NA,Emotion,Exp5,None
5201,1,56,0,0,1,814,NA,Emotion,Exp5,None
5201,1,57,0,1,1,632,NA,Emotion,Exp5,None
5201,1,58,2,1,1,646,NA,Emotion,Exp5,None
5201,1,59,2,0,0,730,NA,Emotion,Exp5,None
5201,1,60,1,1,1,550,NA,Emotion,Exp5,None
5201,2,61,0,1,1,579,NA,Emotion,Exp5,None
5201,2,62,0,0,1,612,NA,Emotion,Exp5,None
5201,2,63,2,0,1,726,NA,Emotion,Exp5,None
5201,2,64,2,1,1,562,NA,Emotion,Exp5,None
5201,2,65,1,0,1,694,NA,Emotion,Exp5,None
5201,2,66,1,1,1,544,NA,Emotion,Exp5,None
5201,2,67,1,1,1,504,NA,Emotion,Exp5,None
5201,2,68,2,0,1,584,NA,Emotion,Exp5,None
5201,2,69,0,0,1,736,NA,Emotion,Exp5,None
5201,2,70,2,1,1,650,NA,Emotion,Exp5,None
5201,2,71,1,0,1,582,NA,Emotion,Exp5,None
5201,2,72,0,1,1,550,NA,Emotion,Exp5,None
5201,2,73,1,1,1,742,NA,Emotion,Exp5,None
5201,2,74,1,0,1,640,NA,Emotion,Exp5,None
5201,2,75,0,0,1,999,NA,Emotion,Exp5,None
5201,2,76,2,0,1,669,NA,Emotion,Exp5,None
5201,2,77,1,1,1,653,NA,Emotion,Exp5,None
5201,2,78,1,0,1,663,NA,Emotion,Exp5,None
5201,2,79,0,1,1,607,NA,Emotion,Exp5,None
5201,2,80,0,1,1,563,NA,Emotion,Exp5,None
5201,2,81,2,1,1,599,NA,Emotion,Exp5,None
5201,2,82,2,1,1,541,NA,Emotion,Exp5,None
5201,2,83,2,0,1,575,NA,Emotion,Exp5,None
5201,2,84,0,0,1,665,NA,Emotion,Exp5,None
5201,2,85,2,0,0,641,NA,Emotion,Exp5,None
5201,2,86,2,0,1,751,NA,Emotion,Exp5,None
5201,2,87,1,1,1,719,NA,Emotion,Exp5,None
5201,2,88,1,0,1,637,NA,Emotion,Exp5,None
5201,2,89,1,0,1,659,NA,Emotion,Exp5,None
5201,2,90,2,1,1,581,NA,Emotion,Exp5,None
5201,2,91,1,1,1,670,NA,Emotion,Exp5,None
5201,2,92,0,1,1,638,NA,Emotion,Exp5,None
5201,2,93,0,0,1,636,NA,Emotion,Exp5,None
5201,2,94,0,0,1,906,NA,Emotion,Exp5,None
5201,2,95,0,1,1,658,NA,Emotion,Exp5,None
5201,2,96,2,1,1,612,NA,Emotion,Exp5,None
5201,2,97,2,0,1,935,NA,Emotion,Exp5,None
5201,2,98,1,1,1,593,NA,Emotion,Exp5,None
5201,2,99,2,0,1,1023,NA,Emotion,Exp5,None
5201,2,100,0,0,1,663,NA,Emotion,Exp5,None
5201,2,101,0,1,1,575,NA,Emotion,Exp5,None
5201,2,102,0,0,1,561,NA,Emotion,Exp5,None
5201,2,103,0,1,1,639,NA,Emotion,Exp5,None
5201,2,104,2,1,1,581,NA,Emotion,Exp5,None
5201,2,105,1,1,1,631,NA,Emotion,Exp5,None
5201,2,106,1,0,0,599,NA,Emotion,Exp5,None
5201,2,107,2,1,0,757,NA,Emotion,Exp5,None
5201,2,108,1,0,1,795,NA,Emotion,Exp5,None
5201,2,109,1,0,1,1049,NA,Emotion,Exp5,None
5201,2,110,0,1,1,549,NA,Emotion,Exp5,None
5201,2,111,1,1,1,645,NA,Emotion,Exp5,None
5201,2,112,1,0,1,569,NA,Emotion,Exp5,None
5201,2,113,2,1,1,525,NA,Emotion,Exp5,None
5201,2,114,2,1,1,425,NA,Emotion,Exp5,None
5201,2,115,2,0,1,633,NA,Emotion,Exp5,None
5201,2,116,0,0,1,887,NA,Emotion,Exp5,None
5201,2,117,0,1,1,523,NA,Emotion,Exp5,None
5201,2,118,1,1,1,807,NA,Emotion,Exp5,None
5201,2,119,0,0,1,802,NA,Emotion,Exp5,None
5201,2,120,2,0,1,711,NA,Emotion,Exp5,None
5201,3,121,1,1,1,861,NA,Emotion,Exp5,None
5201,3,122,1,1,1,447,NA,Emotion,Exp5,None
5201,3,123,0,1,1,571,NA,Emotion,Exp5,None
5201,3,124,2,0,1,631,NA,Emotion,Exp5,None
5201,3,125,2,1,1,767,NA,Emotion,Exp5,None
5201,3,126,0,0,1,595,NA,Emotion,Exp5,None
5201,3,127,0,0,1,617,NA,Emotion,Exp5,None
5201,3,128,1,0,1,611,NA,Emotion,Exp5,None
5201,3,129,2,1,1,591,NA,Emotion,Exp5,None
5201,3,130,1,0,1,615,NA,Emotion,Exp5,None
5201,3,131,0,1,1,537,NA,Emotion,Exp5,None
5201,3,132,2,0,1,547,NA,Emotion,Exp5,None
5201,3,133,2,0,1,579,NA,Emotion,Exp5,None
5201,3,134,1,0,1,541,NA,Emotion,Exp5,None
5201,3,135,2,1,1,559,NA,Emotion,Exp5,None
5201,3,136,1,0,1,461,NA,Emotion,Exp5,None
5201,3,137,1,1,1,647,NA,Emotion,Exp5,None
5201,3,138,0,1,1,515,NA,Emotion,Exp5,None
5201,3,139,2,1,1,537,NA,Emotion,Exp5,None
5201,3,140,1,1,1,539,NA,Emotion,Exp5,None
5201,3,141,0,0,1,638,NA,Emotion,Exp5,None
5201,3,142,2,0,1,572,NA,Emotion,Exp5,None
5201,3,143,0,0,0,568,NA,Emotion,Exp5,None
5201,3,144,0,1,1,636,NA,Emotion,Exp5,None
5201,3,145,0,0,1,689,NA,Emotion,Exp5,None
5201,3,146,2,1,1,693,NA,Emotion,Exp5,None
5201,3,147,0,1,1,743,NA,Emotion,Exp5,None
5201,3,148,1,0,1,663,NA,Emotion,Exp5,None
5201,3,149,0,0,1,591,NA,Emotion,Exp5,None
5201,3,150,0,1,0,1045,NA,Emotion,Exp5,None
5201,3,152,1,1,1,577,NA,Emotion,Exp5,None
5201,3,153,2,1,0,787,NA,Emotion,Exp5,None
5201,3,154,1,0,1,811,NA,Emotion,Exp5,None
5201,3,155,1,1,1,701,NA,Emotion,Exp5,None
5201,3,156,2,0,1,653,NA,Emotion,Exp5,None
5201,3,157,1,0,1,671,NA,Emotion,Exp5,None
5201,3,158,2,0,1,613,NA,Emotion,Exp5,None
5201,3,159,1,1,0,767,NA,Emotion,Exp5,None
5201,3,160,2,1,1,603,NA,Emotion,Exp5,None
5201,3,161,0,1,1,1047,NA,Emotion,Exp5,None
5201,3,162,1,1,1,643,NA,Emotion,Exp5,None
5201,3,163,1,0,1,456,NA,Emotion,Exp5,None
5201,3,164,0,0,1,562,NA,Emotion,Exp5,None
5201,3,165,0,0,1,702,NA,Emotion,Exp5,None
5201,3,167,2,1,0,814,NA,Emotion,Exp5,None
5201,3,168,0,1,1,938,NA,Emotion,Exp5,None
5201,3,169,1,1,1,460,NA,Emotion,Exp5,None
5201,3,170,1,1,1,454,NA,Emotion,Exp5,None
5201,3,171,2,1,1,728,NA,Emotion,Exp5,None
5201,3,172,0,1,1,740,NA,Emotion,Exp5,None
5201,3,173,1,0,1,589,NA,Emotion,Exp5,None
5201,3,174,0,0,1,605,NA,Emotion,Exp5,None
5201,3,175,0,0,1,745,NA,Emotion,Exp5,None
5201,3,176,0,1,1,585,NA,Emotion,Exp5,None
5201,3,177,2,1,1,705,NA,Emotion,Exp5,None
5201,3,178,2,0,1,689,NA,Emotion,Exp5,None
5201,3,179,1,0,1,1085,NA,Emotion,Exp5,None
5201,3,180,2,0,1,561,NA,Emotion,Exp5,None
5201,4,181,1,1,1,552,NA,Emotion,Exp5,None
5201,4,182,2,1,1,494,NA,Emotion,Exp5,None
5201,4,183,0,1,1,432,NA,Emotion,Exp5,None
5201,4,184,2,0,1,534,NA,Emotion,Exp5,None
5201,4,185,1,1,1,568,NA,Emotion,Exp5,None
5201,4,186,0,0,1,868,NA,Emotion,Exp5,None
5201,4,187,2,0,1,692,NA,Emotion,Exp5,None
5201,4,188,0,1,1,702,NA,Emotion,Exp5,None
5201,4,189,0,0,1,614,NA,Emotion,Exp5,None
5201,4,190,2,1,1,680,NA,Emotion,Exp5,None
5201,4,191,1,0,1,646,NA,Emotion,Exp5,None
5201,4,192,1,0,1,610,NA,Emotion,Exp5,None
5201,4,193,2,1,1,598,NA,Emotion,Exp5,None
5201,4,194,2,1,1,667,NA,Emotion,Exp5,None
5201,4,195,1,0,1,619,NA,Emotion,Exp5,None
5201,4,196,1,1,1,669,NA,Emotion,Exp5,None
5201,4,197,0,1,1,613,NA,Emotion,Exp5,None
5201,4,198,1,1,0,607,NA,Emotion,Exp5,None
5201,4,199,0,1,1,875,NA,Emotion,Exp5,None
5201,4,200,0,0,1,569,NA,Emotion,Exp5,None
5201,4,201,2,0,1,621,NA,Emotion,Exp5,None
5201,4,202,0,0,0,821,NA,Emotion,Exp5,None
5201,4,203,1,0,1,896,NA,Emotion,Exp5,None
5201,4,204,2,0,1,698,NA,Emotion,Exp5,None
5201,4,205,2,1,1,556,NA,Emotion,Exp5,None
5201,4,206,1,1,1,658,NA,Emotion,Exp5,None
5201,4,207,1,0,1,548,NA,Emotion,Exp5,None
5201,4,208,0,1,1,396,NA,Emotion,Exp5,None
5201,4,209,2,0,1,658,NA,Emotion,Exp5,None
5201,4,210,2,0,1,668,NA,Emotion,Exp5,None
5201,4,211,1,1,1,756,NA,Emotion,Exp5,None
5201,4,212,0,1,1,762,NA,Emotion,Exp5,None
5201,4,213,2,1,1,686,NA,Emotion,Exp5,None
5201,4,214,0,0,1,698,NA,Emotion,Exp5,None
5201,4,215,1,0,1,740,NA,Emotion,Exp5,None
5201,4,216,0,0,1,654,NA,Emotion,Exp5,None
5201,4,217,1,1,0,624,NA,Emotion,Exp5,None
5201,4,218,2,0,1,1016,NA,Emotion,Exp5,None
5201,4,219,0,1,1,586,NA,Emotion,Exp5,None
5201,4,220,2,1,1,714,NA,Emotion,Exp5,None
5201,4,221,1,1,1,672,NA,Emotion,Exp5,None
5201,4,222,2,0,1,685,NA,Emotion,Exp5,None
5201,4,223,0,0,1,833,NA,Emotion,Exp5,None
5201,4,224,2,1,0,615,NA,Emotion,Exp5,None
5201,4,225,0,0,1,689,NA,Emotion,Exp5,None
5201,4,226,1,0,0,854,NA,Emotion,Exp5,None
5201,4,227,1,0,0,1040,NA,Emotion,Exp5,None
5201,4,228,0,1,0,958,NA,Emotion,Exp5,None
5201,4,229,0,1,1,492,NA,Emotion,Exp5,None
5201,4,230,1,1,1,710,NA,Emotion,Exp5,None
5201,4,231,1,0,1,550,NA,Emotion,Exp5,None
5201,4,232,2,0,1,614,NA,Emotion,Exp5,None
5201,4,233,1,0,1,904,NA,Emotion,Exp5,None
5201,4,234,1,1,1,1048,NA,Emotion,Exp5,None
5201,4,235,0,0,1,500,NA,Emotion,Exp5,None
5201,4,236,0,0,1,678,NA,Emotion,Exp5,None
5201,4,237,2,1,1,676,NA,Emotion,Exp5,None
5201,4,238,2,0,1,650,NA,Emotion,Exp5,None
5201,4,240,0,1,1,502,NA,Emotion,Exp5,None
5201,5,241,0,1,1,568,NA,Emotion,Exp5,None
5201,5,242,0,0,1,517,NA,Emotion,Exp5,None
5201,5,243,1,0,1,787,NA,Emotion,Exp5,None
5201,5,244,0,0,1,626,NA,Emotion,Exp5,None
5201,5,245,1,0,1,874,NA,Emotion,Exp5,None
5201,5,246,1,1,1,648,NA,Emotion,Exp5,None
5201,5,247,0,1,1,572,NA,Emotion,Exp5,None
5201,5,248,2,0,1,510,NA,Emotion,Exp5,None
5201,5,249,2,0,1,574,NA,Emotion,Exp5,None
5201,5,250,2,1,1,584,NA,Emotion,Exp5,None
5201,5,251,1,1,1,688,NA,Emotion,Exp5,None
5201,5,252,2,1,1,612,NA,Emotion,Exp5,None
5201,5,253,0,0,1,510,NA,Emotion,Exp5,None
5201,5,254,1,0,1,582,NA,Emotion,Exp5,None
5201,5,255,2,0,1,646,NA,Emotion,Exp5,None
5201,5,256,0,1,1,482,NA,Emotion,Exp5,None
5201,5,257,1,0,1,654,NA,Emotion,Exp5,None
5201,5,258,1,1,1,496,NA,Emotion,Exp5,None
5201,5,259,2,0,1,634,NA,Emotion,Exp5,None
5201,5,260,2,1,1,504,NA,Emotion,Exp5,None
5201,5,261,0,0,1,584,NA,Emotion,Exp5,None
5201,5,262,0,1,1,576,NA,Emotion,Exp5,None
5201,5,263,2,1,1,642,NA,Emotion,Exp5,None
5201,5,264,1,1,1,574,NA,Emotion,Exp5,None
5201,5,265,0,0,0,512,NA,Emotion,Exp5,None
5201,5,266,1,0,1,672,NA,Emotion,Exp5,None
5201,5,267,2,0,1,752,NA,Emotion,Exp5,None
5201,5,268,1,1,1,599,NA,Emotion,Exp5,None
5201,5,269,2,0,1,605,NA,Emotion,Exp5,None
5201,5,270,0,1,1,513,NA,Emotion,Exp5,None
5201,5,271,2,1,1,815,NA,Emotion,Exp5,None
5201,5,272,1,1,1,601,NA,Emotion,Exp5,None
5201,5,273,0,1,1,487,NA,Emotion,Exp5,None
5201,5,274,2,1,1,786,NA,Emotion,Exp5,None
5201,5,275,0,0,1,538,NA,Emotion,Exp5,None
5201,5,276,1,0,1,604,NA,Emotion,Exp5,None
5201,5,277,1,0,1,896,NA,Emotion,Exp5,None
5201,5,278,1,1,1,778,NA,Emotion,Exp5,None
5201,5,279,0,0,1,596,NA,Emotion,Exp5,None
5201,5,280,2,0,1,626,NA,Emotion,Exp5,None
5201,5,281,0,1,1,634,NA,Emotion,Exp5,None
5201,5,282,0,0,1,576,NA,Emotion,Exp5,None
5201,5,283,2,1,0,770,NA,Emotion,Exp5,None
5201,5,284,1,0,1,630,NA,Emotion,Exp5,None
5201,5,285,2,0,1,806,NA,Emotion,Exp5,None
5201,5,286,1,1,1,594,NA,Emotion,Exp5,None
5201,5,287,2,1,0,856,NA,Emotion,Exp5,None
5201,5,288,0,1,1,578,NA,Emotion,Exp5,None
5201,5,289,0,1,1,732,NA,Emotion,Exp5,None
5201,5,290,0,0,1,631,NA,Emotion,Exp5,None
5201,5,291,1,0,1,735,NA,Emotion,Exp5,None
5201,5,292,2,1,1,425,NA,Emotion,Exp5,None
5201,5,293,2,1,1,465,NA,Emotion,Exp5,None
5201,5,294,2,0,1,657,NA,Emotion,Exp5,None
5201,5,295,1,1,1,531,NA,Emotion,Exp5,None
5201,5,296,0,0,1,975,NA,Emotion,Exp5,None
5201,5,297,1,0,1,769,NA,Emotion,Exp5,None
5201,5,298,2,0,1,661,NA,Emotion,Exp5,None
5201,5,299,0,1,1,631,NA,Emotion,Exp5,None
5201,5,300,1,1,1,663,NA,Emotion,Exp5,None
5201,6,301,0,0,1,538,NA,Emotion,Exp5,None
5201,6,302,1,0,1,620,NA,Emotion,Exp5,None
5201,6,303,0,0,1,596,NA,Emotion,Exp5,None
5201,6,304,1,1,1,554,NA,Emotion,Exp5,None
5201,6,305,0,1,1,600,NA,Emotion,Exp5,None
5201,6,306,0,1,1,420,NA,Emotion,Exp5,None
5201,6,307,1,1,1,574,NA,Emotion,Exp5,None
5201,6,308,1,0,1,544,NA,Emotion,Exp5,None
5201,6,309,2,1,1,465,NA,Emotion,Exp5,None
5201,6,310,2,0,1,609,NA,Emotion,Exp5,None
5201,6,311,2,1,1,557,NA,Emotion,Exp5,None
5201,6,312,2,0,1,803,NA,Emotion,Exp5,None
5201,6,313,1,0,1,575,NA,Emotion,Exp5,None
5201,6,314,2,0,1,465,NA,Emotion,Exp5,None
5201,6,315,0,0,1,745,NA,Emotion,Exp5,None
5201,6,316,0,1,1,649,NA,Emotion,Exp5,None
5201,6,317,2,0,1,747,NA,Emotion,Exp5,None
5201,6,318,0,1,1,795,NA,Emotion,Exp5,None
5201,6,319,0,0,1,641,NA,Emotion,Exp5,None
5201,6,321,2,1,1,835,NA,Emotion,Exp5,None
5201,6,322,1,0,1,641,NA,Emotion,Exp5,None
5201,6,323,1,1,1,493,NA,Emotion,Exp5,None
5201,6,324,2,1,1,567,NA,Emotion,Exp5,None
5201,6,325,2,0,1,659,NA,Emotion,Exp5,None
5201,6,326,0,0,1,659,NA,Emotion,Exp5,None
5201,6,327,2,1,1,732,NA,Emotion,Exp5,None
5201,6,328,0,1,1,590,NA,Emotion,Exp5,None
5201,6,329,2,0,1,876,NA,Emotion,Exp5,None
5201,6,330,1,0,1,1074,NA,Emotion,Exp5,None
5201,6,331,1,1,1,497,NA,Emotion,Exp5,None
5201,6,332,2,1,1,691,NA,Emotion,Exp5,None
5201,6,333,0,1,1,557,NA,Emotion,Exp5,None
5201,6,334,1,1,1,587,NA,Emotion,Exp5,None
5201,6,335,1,0,1,539,NA,Emotion,Exp5,None
5201,6,336,0,0,1,685,NA,Emotion,Exp5,None
5201,6,337,1,1,1,633,NA,Emotion,Exp5,None
5201,6,338,2,0,1,559,NA,Emotion,Exp5,None
5201,6,339,1,0,1,709,NA,Emotion,Exp5,None
5201,6,340,0,1,1,581,NA,Emotion,Exp5,None
5201,6,341,0,1,1,567,NA,Emotion,Exp5,None
5201,6,342,2,1,1,603,NA,Emotion,Exp5,None
5201,6,343,2,1,1,535,NA,Emotion,Exp5,None
5201,6,344,1,1,1,521,NA,Emotion,Exp5,None
5201,6,345,1,0,1,679,NA,Emotion,Exp5,None
5201,6,346,0,0,1,549,NA,Emotion,Exp5,None
5201,6,347,0,0,0,1013,NA,Emotion,Exp5,None
5201,6,348,2,0,1,625,NA,Emotion,Exp5,None
5201,6,349,1,0,1,513,NA,Emotion,Exp5,None
5201,6,350,1,0,1,551,NA,Emotion,Exp5,None
5201,6,351,2,0,1,519,NA,Emotion,Exp5,None
5201,6,352,2,0,1,517,NA,Emotion,Exp5,None
5201,6,353,2,1,1,475,NA,Emotion,Exp5,None
5201,6,354,1,1,1,681,NA,Emotion,Exp5,None
5201,6,355,0,0,1,583,NA,Emotion,Exp5,None
5201,6,356,1,1,0,888,NA,Emotion,Exp5,None
5201,6,357,0,0,1,669,NA,Emotion,Exp5,None
5201,6,358,0,1,1,581,NA,Emotion,Exp5,None
5201,6,359,0,1,1,677,NA,Emotion,Exp5,None
5201,6,360,2,1,1,563,NA,Emotion,Exp5,None
5201,1,1,2,0,1,657,NA,Morality,Exp5,None
5201,1,2,2,0,1,531,NA,Morality,Exp5,None
5201,1,3,2,1,1,423,NA,Morality,Exp5,None
5201,1,4,1,0,1,921,NA,Morality,Exp5,None
5201,1,5,0,0,1,647,NA,Morality,Exp5,None
5201,1,6,2,1,0,843,NA,Morality,Exp5,None
5201,1,7,0,1,0,753,NA,Morality,Exp5,None
5201,1,8,1,1,1,954,NA,Morality,Exp5,None
5201,1,9,1,1,1,634,NA,Morality,Exp5,None
5201,1,10,0,0,1,618,NA,Morality,Exp5,None
5201,1,11,1,0,1,668,NA,Morality,Exp5,None
5201,1,12,0,1,1,724,NA,Morality,Exp5,None
5201,1,13,2,0,1,658,NA,Morality,Exp5,None
5201,1,14,1,0,1,740,NA,Morality,Exp5,None
5201,1,15,0,0,1,582,NA,Morality,Exp5,None
5201,1,16,2,1,1,680,NA,Morality,Exp5,None
5201,1,17,0,0,1,702,NA,Morality,Exp5,None
5201,1,18,1,1,1,608,NA,Morality,Exp5,None
5201,1,19,2,0,1,604,NA,Morality,Exp5,None
5201,1,20,1,0,1,768,NA,Morality,Exp5,None
5201,1,21,0,1,1,716,NA,Morality,Exp5,None
5201,1,22,0,1,1,1026,NA,Morality,Exp5,None
5201,1,23,2,1,1,673,NA,Morality,Exp5,None
5201,1,24,1,1,0,551,NA,Morality,Exp5,None
5201,1,25,1,1,1,575,NA,Morality,Exp5,None
5201,1,26,2,0,1,841,NA,Morality,Exp5,None
5201,1,27,2,1,1,607,NA,Morality,Exp5,None
5201,1,28,2,1,1,483,NA,Morality,Exp5,None
5201,1,29,1,1,1,591,NA,Morality,Exp5,None
5201,1,30,0,0,1,535,NA,Morality,Exp5,None
5201,1,31,1,0,1,610,NA,Morality,Exp5,None
5201,1,32,0,0,1,630,NA,Morality,Exp5,None
5201,1,33,0,1,1,438,NA,Morality,Exp5,None
5201,1,34,1,0,1,628,NA,Morality,Exp5,None
5201,1,35,2,0,0,700,NA,Morality,Exp5,None
5201,1,36,0,1,0,934,NA,Morality,Exp5,None
5201,1,38,0,0,1,832,NA,Morality,Exp5,None
5201,1,39,1,0,1,944,NA,Morality,Exp5,None
5201,1,40,1,0,1,624,NA,Morality,Exp5,None
5201,1,41,0,1,0,1008,NA,Morality,Exp5,None
5201,1,42,0,0,1,636,NA,Morality,Exp5,None
5201,1,43,2,0,1,898,NA,Morality,Exp5,None
5201,1,44,1,1,1,724,NA,Morality,Exp5,None
5201,1,45,0,1,1,792,NA,Morality,Exp5,None
5201,1,46,2,0,1,600,NA,Morality,Exp5,None
5201,1,47,2,1,1,646,NA,Morality,Exp5,None
5201,1,48,1,1,1,578,NA,Morality,Exp5,None
5201,1,49,0,0,0,772,NA,Morality,Exp5,None
5201,1,50,1,0,1,855,NA,Morality,Exp5,None
5201,1,51,2,1,1,681,NA,Morality,Exp5,None
5201,1,52,0,0,1,663,NA,Morality,Exp5,None
5201,1,53,1,1,0,776,NA,Morality,Exp5,None
5201,1,54,2,1,1,714,NA,Morality,Exp5,None
5201,1,55,1,1,1,1008,NA,Morality,Exp5,None
5201,1,56,2,0,1,620,NA,Morality,Exp5,None
5201,1,57,1,0,1,686,NA,Morality,Exp5,None
5201,1,58,0,1,1,650,NA,Morality,Exp5,None
5201,1,59,2,0,1,1038,NA,Morality,Exp5,None
5201,1,60,0,1,1,732,NA,Morality,Exp5,None
5201,2,61,0,1,0,746,NA,Morality,Exp5,None
5201,2,62,1,0,1,930,NA,Morality,Exp5,None
5201,2,63,0,0,1,591,NA,Morality,Exp5,None
5201,2,64,0,1,0,471,NA,Morality,Exp5,None
5201,2,65,1,1,0,1062,NA,Morality,Exp5,None
5201,2,66,2,1,1,704,NA,Morality,Exp5,None
5201,2,67,0,0,1,648,NA,Morality,Exp5,None
5201,2,69,1,0,1,876,NA,Morality,Exp5,None
5201,2,70,1,1,1,834,NA,Morality,Exp5,None
5201,2,71,2,0,1,816,NA,Morality,Exp5,None
5201,2,72,2,1,1,610,NA,Morality,Exp5,None
5201,2,73,0,0,1,846,NA,Morality,Exp5,None
5201,2,74,2,1,1,586,NA,Morality,Exp5,None
5201,2,76,1,1,1,770,NA,Morality,Exp5,None
5201,2,77,2,0,0,990,NA,Morality,Exp5,None
5201,2,78,0,1,1,734,NA,Morality,Exp5,None
5201,2,79,1,0,1,928,NA,Morality,Exp5,None
5201,2,80,2,1,1,644,NA,Morality,Exp5,None
5201,2,81,0,1,1,770,NA,Morality,Exp5,None
5201,2,82,0,0,1,670,NA,Morality,Exp5,None
5201,2,83,2,0,0,830,NA,Morality,Exp5,None
5201,2,84,1,1,1,615,NA,Morality,Exp5,None
5201,2,85,2,0,1,555,NA,Morality,Exp5,None
5201,2,86,2,0,1,611,NA,Morality,Exp5,None
5201,2,87,1,1,1,727,NA,Morality,Exp5,None
5201,2,88,0,1,1,771,NA,Morality,Exp5,None
5201,2,89,0,0,1,679,NA,Morality,Exp5,None
5201,2,90,2,1,1,717,NA,Morality,Exp5,None
5201,2,91,1,0,1,618,NA,Morality,Exp5,None
5201,2,92,1,0,1,668,NA,Morality,Exp5,None
5201,2,93,0,1,1,916,NA,Morality,Exp5,None
5201,2,94,1,1,0,778,NA,Morality,Exp5,None
5201,2,95,0,0,0,868,NA,Morality,Exp5,None
5201,2,96,2,1,1,604,NA,Morality,Exp5,None
5201,2,97,1,1,0,690,NA,Morality,Exp5,None
5201,2,98,1,1,1,582,NA,Morality,Exp5,None
5201,2,99,2,0,1,1064,NA,Morality,Exp5,None
5201,2,100,0,0,0,786,NA,Morality,Exp5,None
5201,2,101,0,1,1,722,NA,Morality,Exp5,None
5201,2,102,1,0,1,840,NA,Morality,Exp5,None
5201,2,103,1,0,1,902,NA,Morality,Exp5,None
5201,2,104,2,1,1,912,NA,Morality,Exp5,None
5201,2,105,0,1,1,704,NA,Morality,Exp5,None
5201,2,106,2,0,1,1035,NA,Morality,Exp5,None
5201,2,107,0,0,1,771,NA,Morality,Exp5,None
5201,2,108,2,1,1,823,NA,Morality,Exp5,None
5201,2,109,1,1,1,633,NA,Morality,Exp5,None
5201,2,110,2,1,1,697,NA,Morality,Exp5,None
5201,2,111,0,1,1,667,NA,Morality,Exp5,None
5201,2,112,1,1,1,659,NA,Morality,Exp5,None
5201,2,113,2,1,1,573,NA,Morality,Exp5,None
5201,2,114,0,0,1,593,NA,Morality,Exp5,None
5201,2,115,2,0,1,985,NA,Morality,Exp5,None
5201,2,116,0,1,1,851,NA,Morality,Exp5,None
5201,2,117,1,0,1,751,NA,Morality,Exp5,None
5201,2,118,2,0,1,678,NA,Morality,Exp5,None
5201,2,119,1,0,1,788,NA,Morality,Exp5,None
5201,2,120,0,0,1,668,NA,Morality,Exp5,None
5201,3,121,0,1,1,958,NA,Morality,Exp5,None
5201,3,122,0,1,1,596,NA,Morality,Exp5,None
5201,3,123,1,1,1,642,NA,Morality,Exp5,None
5201,3,124,2,0,1,632,NA,Morality,Exp5,None
5201,3,125,0,0,1,793,NA,Morality,Exp5,None
5201,3,126,2,0,1,737,NA,Morality,Exp5,None
5201,3,127,2,1,1,699,NA,Morality,Exp5,None
5201,3,128,2,1,1,557,NA,Morality,Exp5,None
5201,3,129,1,1,1,603,NA,Morality,Exp5,None
5201,3,130,1,0,1,617,NA,Morality,Exp5,None
5201,3,131,1,0,1,971,NA,Morality,Exp5,None
5201,3,132,0,0,1,903,NA,Morality,Exp5,None
5201,3,133,0,0,1,817,NA,Morality,Exp5,None
5201,3,134,2,1,1,675,NA,Morality,Exp5,None
5201,3,135,1,1,1,537,NA,Morality,Exp5,None
5201,3,136,2,1,0,667,NA,Morality,Exp5,None
5201,3,137,1,0,0,827,NA,Morality,Exp5,None
5201,3,138,1,0,1,827,NA,Morality,Exp5,None
5201,3,139,0,1,1,755,NA,Morality,Exp5,None
5201,3,140,0,0,1,793,NA,Morality,Exp5,None
5201,3,141,0,1,1,729,NA,Morality,Exp5,None
5201,3,142,1,1,1,636,NA,Morality,Exp5,None
5201,3,143,2,0,1,722,NA,Morality,Exp5,None
5201,3,144,2,0,1,776,NA,Morality,Exp5,None
5201,3,145,0,0,1,730,NA,Morality,Exp5,None
5201,3,146,2,1,1,630,NA,Morality,Exp5,None
5201,3,147,0,1,0,1087,NA,Morality,Exp5,None
5201,3,148,0,0,1,811,NA,Morality,Exp5,None
5201,3,149,1,1,1,991,NA,Morality,Exp5,None
5201,3,150,1,0,1,775,NA,Morality,Exp5,None
5201,3,151,0,1,1,753,NA,Morality,Exp5,None
5201,3,152,1,0,1,713,NA,Morality,Exp5,None
5201,3,153,2,1,1,713,NA,Morality,Exp5,None
5201,3,154,1,1,1,841,NA,Morality,Exp5,None
5201,3,155,2,0,1,935,NA,Morality,Exp5,None
5201,3,156,2,0,1,1081,NA,Morality,Exp5,None
5201,3,157,2,1,1,695,NA,Morality,Exp5,None
5201,3,158,1,0,1,873,NA,Morality,Exp5,None
5201,3,159,1,1,1,561,NA,Morality,Exp5,None
5201,3,160,0,0,1,959,NA,Morality,Exp5,None
5201,3,161,0,1,1,653,NA,Morality,Exp5,None
5201,3,162,1,1,1,729,NA,Morality,Exp5,None
5201,3,163,0,0,1,813,NA,Morality,Exp5,None
5201,3,164,1,0,1,817,NA,Morality,Exp5,None
5201,3,165,2,0,1,819,NA,Morality,Exp5,None
5201,3,166,2,1,1,701,NA,Morality,Exp5,None
5201,3,167,2,0,1,583,NA,Morality,Exp5,None
5201,3,168,0,1,0,705,NA,Morality,Exp5,None
5201,3,169,0,0,1,753,NA,Morality,Exp5,None
5201,3,170,1,1,1,569,NA,Morality,Exp5,None
5201,3,171,1,1,1,813,NA,Morality,Exp5,None
5201,3,172,2,0,1,577,NA,Morality,Exp5,None
5201,3,173,0,1,0,651,NA,Morality,Exp5,None
5201,3,174,1,0,0,1023,NA,Morality,Exp5,None
5201,3,175,0,0,1,609,NA,Morality,Exp5,None
5201,3,176,1,0,1,997,NA,Morality,Exp5,None
5201,3,177,0,1,1,851,NA,Morality,Exp5,None
5201,3,178,2,1,1,855,NA,Morality,Exp5,None
5201,3,179,2,1,1,609,NA,Morality,Exp5,None
5201,3,180,2,0,1,661,NA,Morality,Exp5,None
5201,4,181,2,1,0,841,NA,Morality,Exp5,None
5201,4,182,0,1,1,855,NA,Morality,Exp5,None
5201,4,183,1,0,1,593,NA,Morality,Exp5,None
5201,4,184,0,1,1,801,NA,Morality,Exp5,None
5201,4,185,1,1,1,688,NA,Morality,Exp5,None
5201,4,186,0,0,1,724,NA,Morality,Exp5,None
5201,4,187,2,1,1,1002,NA,Morality,Exp5,None
5201,4,188,1,1,1,464,NA,Morality,Exp5,None
5201,4,189,2,0,1,698,NA,Morality,Exp5,None
5201,4,190,1,0,1,756,NA,Morality,Exp5,None
5201,4,191,0,0,1,769,NA,Morality,Exp5,None
5201,4,192,2,0,1,589,NA,Morality,Exp5,None
5201,4,193,1,1,1,893,NA,Morality,Exp5,None
5201,4,194,0,0,1,761,NA,Morality,Exp5,None
5201,4,195,2,1,1,815,NA,Morality,Exp5,None
5201,4,196,2,0,1,729,NA,Morality,Exp5,None
5201,4,197,1,0,1,565,NA,Morality,Exp5,None
5201,4,198,0,1,1,905,NA,Morality,Exp5,None
5201,4,199,1,0,1,961,NA,Morality,Exp5,None
5201,4,200,0,0,1,671,NA,Morality,Exp5,None
5201,4,201,2,1,1,711,NA,Morality,Exp5,None
5201,4,202,1,1,1,623,NA,Morality,Exp5,None
5201,4,203,0,1,1,753,NA,Morality,Exp5,None
5201,4,204,2,0,1,617,NA,Morality,Exp5,None
5201,4,205,2,0,1,635,NA,Morality,Exp5,None
5201,4,206,1,1,1,745,NA,Morality,Exp5,None
5201,4,207,0,1,1,674,NA,Morality,Exp5,None
5201,4,208,2,1,1,642,NA,Morality,Exp5,None
5201,4,209,1,0,1,664,NA,Morality,Exp5,None
5201,4,210,0,0,1,706,NA,Morality,Exp5,None
5201,4,211,1,1,1,634,NA,Morality,Exp5,None
5201,4,212,2,1,1,642,NA,Morality,Exp5,None
5201,4,213,1,0,1,712,NA,Morality,Exp5,None
5201,4,214,2,0,1,648,NA,Morality,Exp5,None
5201,4,215,0,1,1,444,NA,Morality,Exp5,None
5201,4,216,0,0,1,546,NA,Morality,Exp5,None
5201,4,217,0,0,1,466,NA,Morality,Exp5,None
5201,4,218,1,0,1,577,NA,Morality,Exp5,None
5201,4,219,2,1,1,611,NA,Morality,Exp5,None
5201,4,220,0,1,0,535,NA,Morality,Exp5,None
5201,4,221,1,0,1,625,NA,Morality,Exp5,None
5201,4,222,1,1,1,505,NA,Morality,Exp5,None
5201,4,223,2,0,1,857,NA,Morality,Exp5,None
5201,4,224,0,1,1,659,NA,Morality,Exp5,None
5201,4,225,2,1,1,933,NA,Morality,Exp5,None
5201,4,226,0,0,1,625,NA,Morality,Exp5,None
5201,4,227,1,1,1,401,NA,Morality,Exp5,None
5201,4,228,2,0,1,591,NA,Morality,Exp5,None
5201,4,229,0,0,1,591,NA,Morality,Exp5,None
5201,4,230,2,0,1,567,NA,Morality,Exp5,None
5201,4,231,2,1,1,556,NA,Morality,Exp5,None
5201,4,232,1,0,1,546,NA,Morality,Exp5,None
5201,4,233,0,0,1,1098,NA,Morality,Exp5,None
5201,4,234,0,1,1,740,NA,Morality,Exp5,None
5201,4,235,2,0,1,614,NA,Morality,Exp5,None
5201,4,236,2,1,1,432,NA,Morality,Exp5,None
5201,4,237,1,0,1,502,NA,Morality,Exp5,None
5201,4,238,1,1,1,368,NA,Morality,Exp5,None
5201,4,239,0,1,0,460,NA,Morality,Exp5,None
5201,4,240,1,1,1,630,NA,Morality,Exp5,None
5201,5,241,1,0,1,594,NA,Morality,Exp5,None
5201,5,242,2,1,1,570,NA,Morality,Exp5,None
5201,5,243,2,0,1,518,NA,Morality,Exp5,None
5201,5,244,0,1,1,588,NA,Morality,Exp5,None
5201,5,245,1,1,1,539,NA,Morality,Exp5,None
5201,5,246,1,0,1,637,NA,Morality,Exp5,None
5201,5,247,0,0,1,755,NA,Morality,Exp5,None
5201,5,248,2,0,1,529,NA,Morality,Exp5,None
5201,5,249,1,1,1,589,NA,Morality,Exp5,None
5201,5,250,2,1,1,485,NA,Morality,Exp5,None
5201,5,251,0,0,1,537,NA,Morality,Exp5,None
5201,5,252,0,1,1,444,NA,Morality,Exp5,None
5201,5,253,2,0,1,592,NA,Morality,Exp5,None
5201,5,254,0,1,1,696,NA,Morality,Exp5,None
5201,5,255,1,0,1,586,NA,Morality,Exp5,None
5201,5,256,1,1,1,562,NA,Morality,Exp5,None
5201,5,257,0,0,1,624,NA,Morality,Exp5,None
5201,5,258,2,1,1,586,NA,Morality,Exp5,None
5201,5,259,2,0,1,626,NA,Morality,Exp5,None
5201,5,260,1,0,1,682,NA,Morality,Exp5,None
5201,5,261,0,0,1,624,NA,Morality,Exp5,None
5201,5,262,2,1,1,776,NA,Morality,Exp5,None
5201,5,263,1,1,1,538,NA,Morality,Exp5,None
5201,5,264,0,1,1,580,NA,Morality,Exp5,None
5201,5,265,1,0,1,606,NA,Morality,Exp5,None
5201,5,266,2,1,1,634,NA,Morality,Exp5,None
5201,5,267,0,1,0,744,NA,Morality,Exp5,None
5201,5,268,0,0,1,528,NA,Morality,Exp5,None
5201,5,269,1,1,1,548,NA,Morality,Exp5,None
5201,5,270,0,0,1,844,NA,Morality,Exp5,None
5201,5,271,1,0,1,680,NA,Morality,Exp5,None
5201,5,272,2,0,1,686,NA,Morality,Exp5,None
5201,5,273,0,1,1,546,NA,Morality,Exp5,None
5201,5,274,2,0,1,913,NA,Morality,Exp5,None
5201,5,275,2,1,1,567,NA,Morality,Exp5,None
5201,5,276,1,1,1,580,NA,Morality,Exp5,None
5201,5,277,1,1,1,478,NA,Morality,Exp5,None
5201,5,278,2,1,1,708,NA,Morality,Exp5,None
5201,5,279,2,0,1,620,NA,Morality,Exp5,None
5201,5,280,2,1,1,670,NA,Morality,Exp5,None
5201,5,281,2,0,1,798,NA,Morality,Exp5,None
5201,5,282,1,0,1,780,NA,Morality,Exp5,None
5201,5,283,0,0,1,734,NA,Morality,Exp5,None
5201,5,284,0,1,1,480,NA,Morality,Exp5,None
5201,5,285,1,1,1,758,NA,Morality,Exp5,None
5201,5,286,1,0,1,564,NA,Morality,Exp5,None
5201,5,287,0,1,1,728,NA,Morality,Exp5,None
5201,5,288,0,0,1,628,NA,Morality,Exp5,None
5201,5,289,2,0,1,996,NA,Morality,Exp5,None
5201,5,290,1,0,1,842,NA,Morality,Exp5,None
5201,5,291,1,1,1,776,NA,Morality,Exp5,None
5201,5,292,2,0,1,690,NA,Morality,Exp5,None
5201,5,293,2,1,1,510,NA,Morality,Exp5,None
5201,5,294,0,0,1,606,NA,Morality,Exp5,None
5201,5,295,1,0,1,666,NA,Morality,Exp5,None
5201,5,296,0,1,1,906,NA,Morality,Exp5,None
5201,5,297,1,1,0,706,NA,Morality,Exp5,None
5201,5,298,0,0,1,738,NA,Morality,Exp5,None
5201,5,299,2,1,1,677,NA,Morality,Exp5,None
5201,5,300,0,1,1,883,NA,Morality,Exp5,None
5201,6,301,0,0,0,616,NA,Morality,Exp5,None
5201,6,302,1,1,1,666,NA,Morality,Exp5,None
5201,6,303,2,1,1,594,NA,Morality,Exp5,None
5201,6,304,2,0,1,528,NA,Morality,Exp5,None
5201,6,305,1,1,0,716,NA,Morality,Exp5,None
5201,6,306,2,0,1,546,NA,Morality,Exp5,None
5201,6,307,1,0,1,618,NA,Morality,Exp5,None
5201,6,308,0,1,1,596,NA,Morality,Exp5,None
5201,6,309,1,0,1,754,NA,Morality,Exp5,None
5201,6,310,2,1,1,856,NA,Morality,Exp5,None
5201,6,311,0,0,0,738,NA,Morality,Exp5,None
5201,6,312,0,1,0,636,NA,Morality,Exp5,None
5201,6,313,0,1,1,586,NA,Morality,Exp5,None
5201,6,314,0,0,1,618,NA,Morality,Exp5,None
5201,6,315,1,0,1,788,NA,Morality,Exp5,None
5201,6,316,2,0,1,572,NA,Morality,Exp5,None
5201,6,317,1,1,1,616,NA,Morality,Exp5,None
5201,6,318,0,0,1,594,NA,Morality,Exp5,None
5201,6,319,1,0,1,513,NA,Morality,Exp5,None
5201,6,320,0,1,1,647,NA,Morality,Exp5,None
5201,6,321,2,1,1,507,NA,Morality,Exp5,None
5201,6,322,2,0,1,571,NA,Morality,Exp5,None
5201,6,323,1,1,0,623,NA,Morality,Exp5,None
5201,6,324,2,1,0,631,NA,Morality,Exp5,None
5201,6,325,0,1,1,607,NA,Morality,Exp5,None
5201,6,326,1,1,1,643,NA,Morality,Exp5,None
5201,6,327,0,1,1,767,NA,Morality,Exp5,None
5201,6,328,2,0,1,738,NA,Morality,Exp5,None
5201,6,329,2,1,1,516,NA,Morality,Exp5,None
5201,6,330,2,1,1,474,NA,Morality,Exp5,None
5201,6,331,1,1,1,504,NA,Morality,Exp5,None
5201,6,332,1,0,1,840,NA,Morality,Exp5,None
5201,6,333,2,0,1,630,NA,Morality,Exp5,None
5201,6,334,1,0,1,686,NA,Morality,Exp5,None
5201,6,335,0,0,1,738,NA,Morality,Exp5,None
5201,6,336,0,0,1,884,NA,Morality,Exp5,None
5201,6,337,1,0,1,824,NA,Morality,Exp5,None
5201,6,338,1,1,1,816,NA,Morality,Exp5,None
5201,6,339,1,0,1,554,NA,Morality,Exp5,None
5201,6,340,2,0,1,600,NA,Morality,Exp5,None
5201,6,341,2,1,1,510,NA,Morality,Exp5,None
5201,6,342,0,0,0,894,NA,Morality,Exp5,None
5201,6,343,0,1,1,873,NA,Morality,Exp5,None
5201,6,344,0,1,1,535,NA,Morality,Exp5,None
5201,6,345,0,0,1,905,NA,Morality,Exp5,None
5201,6,346,1,1,1,633,NA,Morality,Exp5,None
5201,6,347,2,0,1,575,NA,Morality,Exp5,None
5201,6,348,2,1,1,633,NA,Morality,Exp5,None
5201,6,349,2,0,1,655,NA,Morality,Exp5,None
5201,6,350,2,0,1,441,NA,Morality,Exp5,None
5201,6,351,1,1,1,775,NA,Morality,Exp5,None
5201,6,352,1,1,1,563,NA,Morality,Exp5,None
5201,6,353,0,0,1,489,NA,Morality,Exp5,None
5201,6,354,1,0,1,629,NA,Morality,Exp5,None
5201,6,355,0,1,1,589,NA,Morality,Exp5,None
5201,6,356,2,1,0,1069,NA,Morality,Exp5,None
5201,6,357,0,0,1,644,NA,Morality,Exp5,None
5201,6,358,2,1,1,570,NA,Morality,Exp5,None
5201,6,359,1,0,1,894,NA,Morality,Exp5,None
5201,6,360,0,1,1,946,NA,Morality,Exp5,None
5201,1,1,1,1,1,629,NA,Scene,Exp5,None
5201,1,2,0,1,1,525,NA,Scene,Exp5,None
5201,1,3,1,0,1,617,NA,Scene,Exp5,None
5201,1,4,2,0,1,627,NA,Scene,Exp5,None
5201,1,5,2,0,1,523,NA,Scene,Exp5,None
5201,1,6,0,0,1,553,NA,Scene,Exp5,None
5201,1,7,1,0,1,617,NA,Scene,Exp5,None
5201,1,8,0,0,1,891,NA,Scene,Exp5,None
5201,1,9,1,1,1,511,NA,Scene,Exp5,None
5201,1,10,2,1,1,471,NA,Scene,Exp5,None
5201,1,11,2,1,1,503,NA,Scene,Exp5,None
5201,1,12,0,1,1,433,NA,Scene,Exp5,None
5201,1,13,2,0,1,537,NA,Scene,Exp5,None
5201,1,14,2,1,1,539,NA,Scene,Exp5,None
5201,1,15,1,0,0,973,NA,Scene,Exp5,None
5201,1,16,0,0,1,585,NA,Scene,Exp5,None
5201,1,17,1,1,1,681,NA,Scene,Exp5,None
5201,1,18,0,0,1,543,NA,Scene,Exp5,None
5201,1,19,0,1,1,473,NA,Scene,Exp5,None
5201,1,20,1,1,1,601,NA,Scene,Exp5,None
5201,1,21,0,1,0,511,NA,Scene,Exp5,None
5201,1,22,1,0,1,951,NA,Scene,Exp5,None
5201,1,23,2,0,1,687,NA,Scene,Exp5,None
5201,1,24,2,1,1,523,NA,Scene,Exp5,None
5201,1,25,2,0,1,569,NA,Scene,Exp5,None
5201,1,26,0,0,1,485,NA,Scene,Exp5,None
5201,1,27,1,0,1,801,NA,Scene,Exp5,None
5201,1,28,0,0,1,471,NA,Scene,Exp5,None
5201,1,29,0,1,1,783,NA,Scene,Exp5,None
5201,1,30,2,0,1,625,NA,Scene,Exp5,None
5201,1,31,2,1,1,681,NA,Scene,Exp5,None
5201,1,32,1,1,1,535,NA,Scene,Exp5,None
5201,1,33,2,1,1,449,NA,Scene,Exp5,None
5201,1,34,0,1,1,501,NA,Scene,Exp5,None
5201,1,35,1,1,1,855,NA,Scene,Exp5,None
5201,1,36,1,0,1,914,NA,Scene,Exp5,None
5201,1,37,0,1,1,594,NA,Scene,Exp5,None
5201,1,38,1,0,1,978,NA,Scene,Exp5,None
5201,1,39,0,0,1,588,NA,Scene,Exp5,None
5201,1,40,0,0,1,892,NA,Scene,Exp5,None
5201,1,41,2,1,1,823,NA,Scene,Exp5,None
5201,1,42,1,1,1,665,NA,Scene,Exp5,None
5201,1,43,2,0,1,937,NA,Scene,Exp5,None
5201,1,44,2,0,1,731,NA,Scene,Exp5,None
5201,1,45,2,1,1,535,NA,Scene,Exp5,None
5201,1,46,1,1,1,585,NA,Scene,Exp5,None
5201,1,47,1,0,1,777,NA,Scene,Exp5,None
5201,1,48,0,1,1,571,NA,Scene,Exp5,None
5201,1,49,2,1,1,615,NA,Scene,Exp5,None
5201,1,50,1,0,1,545,NA,Scene,Exp5,None
5201,1,51,1,1,1,689,NA,Scene,Exp5,None
5201,1,52,2,1,1,581,NA,Scene,Exp5,None
5201,1,53,0,1,1,679,NA,Scene,Exp5,None
5201,1,54,2,0,1,589,NA,Scene,Exp5,None
5201,1,55,1,1,1,653,NA,Scene,Exp5,None
5201,1,56,2,0,1,591,NA,Scene,Exp5,None
5201,1,57,0,0,1,647,NA,Scene,Exp5,None
5201,1,58,1,0,1,667,NA,Scene,Exp5,None
5201,1,59,0,0,1,628,NA,Scene,Exp5,None
5201,1,60,0,1,1,540,NA,Scene,Exp5,None
5201,2,61,0,1,1,618,NA,Scene,Exp5,None
5201,2,62,0,0,1,484,NA,Scene,Exp5,None
5201,2,63,1,0,0,762,NA,Scene,Exp5,None
5201,2,64,1,0,1,480,NA,Scene,Exp5,None
5201,2,65,2,1,1,902,NA,Scene,Exp5,None
5201,2,66,2,0,1,528,NA,Scene,Exp5,None
5201,2,67,2,0,1,803,NA,Scene,Exp5,None
5201,2,68,0,0,1,743,NA,Scene,Exp5,None
5201,2,69,1,1,1,1065,NA,Scene,Exp5,None
5201,2,70,2,1,1,561,NA,Scene,Exp5,None
5201,2,71,1,1,0,575,NA,Scene,Exp5,None
5201,2,72,0,1,1,681,NA,Scene,Exp5,None
5201,2,73,0,1,1,511,NA,Scene,Exp5,None
5201,2,74,0,1,1,415,NA,Scene,Exp5,None
5201,2,75,2,1,1,521,NA,Scene,Exp5,None
5201,2,76,2,0,1,511,NA,Scene,Exp5,None
5201,2,77,1,0,1,975,NA,Scene,Exp5,None
5201,2,78,0,0,1,769,NA,Scene,Exp5,None
5201,2,79,2,0,1,653,NA,Scene,Exp5,None
5201,2,80,0,0,1,672,NA,Scene,Exp5,None
5201,2,81,1,1,1,608,NA,Scene,Exp5,None
5201,2,82,2,1,1,732,NA,Scene,Exp5,None
5201,2,83,1,1,0,536,NA,Scene,Exp5,None
5201,2,84,1,0,1,770,NA,Scene,Exp5,None
5201,2,85,1,1,0,590,NA,Scene,Exp5,None
5201,2,86,2,1,1,582,NA,Scene,Exp5,None
5201,2,87,0,1,1,496,NA,Scene,Exp5,None
5201,2,89,0,0,1,578,NA,Scene,Exp5,None
5201,2,90,0,1,1,756,NA,Scene,Exp5,None
5201,2,91,1,0,1,618,NA,Scene,Exp5,None
5201,2,92,2,0,1,748,NA,Scene,Exp5,None
5201,2,93,1,0,1,644,NA,Scene,Exp5,None
5201,2,94,2,0,1,600,NA,Scene,Exp5,None
5201,2,95,0,0,1,589,NA,Scene,Exp5,None
5201,2,96,1,1,0,629,NA,Scene,Exp5,None
5201,2,97,1,1,1,509,NA,Scene,Exp5,None
5201,2,98,0,0,1,629,NA,Scene,Exp5,None
5201,2,99,0,1,1,1061,NA,Scene,Exp5,None
5201,2,100,1,0,0,631,NA,Scene,Exp5,None
5201,2,101,1,1,1,527,NA,Scene,Exp5,None
5201,2,102,2,0,1,851,NA,Scene,Exp5,None
5201,2,103,2,1,1,648,NA,Scene,Exp5,None
5201,2,104,0,1,1,492,NA,Scene,Exp5,None
5201,2,105,0,0,1,584,NA,Scene,Exp5,None
5201,2,106,1,0,1,944,NA,Scene,Exp5,None
5201,2,107,2,1,1,666,NA,Scene,Exp5,None
5201,2,108,2,0,1,618,NA,Scene,Exp5,None
5201,2,109,0,1,1,596,NA,Scene,Exp5,None
5201,2,110,0,0,1,618,NA,Scene,Exp5,None
5201,2,111,1,0,1,1052,NA,Scene,Exp5,None
5201,2,112,0,0,1,678,NA,Scene,Exp5,None
5201,2,113,1,0,1,780,NA,Scene,Exp5,None
5201,2,114,2,1,1,590,NA,Scene,Exp5,None
5201,2,115,1,1,0,550,NA,Scene,Exp5,None
5201,2,116,2,1,0,590,NA,Scene,Exp5,None
5201,2,117,2,0,1,574,NA,Scene,Exp5,None
5201,2,118,1,1,1,616,NA,Scene,Exp5,None
5201,2,119,0,1,1,578,NA,Scene,Exp5,None
5201,2,120,2,0,1,556,NA,Scene,Exp5,None
5201,3,121,0,1,1,699,NA,Scene,Exp5,None
5201,3,122,1,1,1,774,NA,Scene,Exp5,None
5201,3,123,1,0,1,672,NA,Scene,Exp5,None
5201,3,124,2,1,1,552,NA,Scene,Exp5,None
5201,3,125,2,0,1,566,NA,Scene,Exp5,None
5201,3,126,2,1,1,666,NA,Scene,Exp5,None
5201,3,127,0,1,1,610,NA,Scene,Exp5,None
5201,3,128,2,0,1,654,NA,Scene,Exp5,None
5201,3,129,1,0,1,720,NA,Scene,Exp5,None
5201,3,130,0,0,1,862,NA,Scene,Exp5,None
5201,3,131,0,0,1,904,NA,Scene,Exp5,None
5201,3,132,1,1,1,680,NA,Scene,Exp5,None
5201,3,133,1,1,1,918,NA,Scene,Exp5,None
5201,3,134,2,1,1,564,NA,Scene,Exp5,None
5201,3,135,0,0,1,584,NA,Scene,Exp5,None
5201,3,136,0,0,1,520,NA,Scene,Exp5,None
5201,3,137,1,0,1,582,NA,Scene,Exp5,None
5201,3,138,0,1,0,528,NA,Scene,Exp5,None
5201,3,139,1,0,1,580,NA,Scene,Exp5,None
5201,3,140,2,1,1,942,NA,Scene,Exp5,None
5201,3,141,0,1,1,958,NA,Scene,Exp5,None
5201,3,142,1,1,1,708,NA,Scene,Exp5,None
5201,3,143,2,0,1,508,NA,Scene,Exp5,None
5201,3,144,2,0,1,564,NA,Scene,Exp5,None
5201,3,145,2,0,1,609,NA,Scene,Exp5,None
5201,3,146,2,1,1,469,NA,Scene,Exp5,None
5201,3,147,2,0,1,749,NA,Scene,Exp5,None
5201,3,148,1,0,1,908,NA,Scene,Exp5,None
5201,3,149,0,0,1,772,NA,Scene,Exp5,None
5201,3,150,1,1,1,728,NA,Scene,Exp5,None
5201,3,151,2,1,1,836,NA,Scene,Exp5,None
5201,3,152,0,1,1,458,NA,Scene,Exp5,None
5201,3,153,1,1,1,516,NA,Scene,Exp5,None
5201,3,154,1,0,1,546,NA,Scene,Exp5,None
5201,3,156,0,0,1,498,NA,Scene,Exp5,None
5201,3,157,2,0,0,780,NA,Scene,Exp5,None
5201,3,158,2,1,1,718,NA,Scene,Exp5,None
5201,3,159,0,1,1,676,NA,Scene,Exp5,None
5201,3,160,0,0,1,586,NA,Scene,Exp5,None
5201,3,161,0,1,0,690,NA,Scene,Exp5,None
5201,3,162,1,1,1,622,NA,Scene,Exp5,None
5201,3,163,2,1,1,520,NA,Scene,Exp5,None
5201,3,164,2,0,1,534,NA,Scene,Exp5,None
5201,3,165,1,0,1,1066,NA,Scene,Exp5,None
5201,3,166,1,0,1,522,NA,Scene,Exp5,None
5201,3,167,1,1,0,512,NA,Scene,Exp5,None
5201,3,168,0,0,1,592,NA,Scene,Exp5,None
5201,3,169,2,0,0,617,NA,Scene,Exp5,None
5201,3,170,1,1,1,795,NA,Scene,Exp5,None
5201,3,171,0,1,1,731,NA,Scene,Exp5,None
5201,3,173,1,0,1,687,NA,Scene,Exp5,None
5201,3,174,0,0,0,907,NA,Scene,Exp5,None
5201,3,175,2,1,1,627,NA,Scene,Exp5,None
5201,3,176,0,0,1,618,NA,Scene,Exp5,None
5201,3,177,2,1,1,612,NA,Scene,Exp5,None
5201,3,178,0,1,1,528,NA,Scene,Exp5,None
5201,3,179,1,0,1,796,NA,Scene,Exp5,None
5201,3,180,2,0,1,642,NA,Scene,Exp5,None
5201,4,181,2,0,1,766,NA,Scene,Exp5,None
5201,4,182,1,0,1,570,NA,Scene,Exp5,None
5201,4,183,0,0,1,478,NA,Scene,Exp5,None
5201,4,184,2,1,1,540,NA,Scene,Exp5,None
5201,4,185,0,1,1,526,NA,Scene,Exp5,None
5201,4,186,1,0,1,530,NA,Scene,Exp5,None
5201,4,187,0,1,1,608,NA,Scene,Exp5,None
5201,4,188,1,1,1,645,NA,Scene,Exp5,None
5201,4,189,2,1,1,443,NA,Scene,Exp5,None
5201,4,190,2,0,1,609,NA,Scene,Exp5,None
5201,4,191,0,0,1,605,NA,Scene,Exp5,None
5201,4,192,1,1,1,659,NA,Scene,Exp5,None
5201,4,193,0,1,1,685,NA,Scene,Exp5,None
5201,4,194,0,0,1,651,NA,Scene,Exp5,None
5201,4,195,1,1,1,639,NA,Scene,Exp5,None
5201,4,196,0,0,1,781,NA,Scene,Exp5,None
5201,4,197,2,0,1,671,NA,Scene,Exp5,None
5201,4,198,1,0,1,631,NA,Scene,Exp5,None
5201,4,199,1,1,1,391,NA,Scene,Exp5,None
5201,4,200,1,0,1,559,NA,Scene,Exp5,None
5201,4,201,0,1,1,532,NA,Scene,Exp5,None
5201,4,202,2,1,1,616,NA,Scene,Exp5,None
5201,4,203,2,0,1,594,NA,Scene,Exp5,None
5201,4,204,2,1,1,1066,NA,Scene,Exp5,None
5201,4,205,0,0,1,618,NA,Scene,Exp5,None
5201,4,206,0,0,1,556,NA,Scene,Exp5,None
5201,4,207,0,1,1,554,NA,Scene,Exp5,None
5201,4,208,1,1,1,632,NA,Scene,Exp5,None
5201,4,209,1,0,1,544,NA,Scene,Exp5,None
5201,4,210,2,0,1,552,NA,Scene,Exp5,None
5201,4,211,1,0,1,785,NA,Scene,Exp5,None
5201,4,212,2,1,1,913,NA,Scene,Exp5,None
5201,4,213,0,1,1,601,NA,Scene,Exp5,None
5201,4,214,2,1,1,863,NA,Scene,Exp5,None
5201,4,215,2,0,1,585,NA,Scene,Exp5,None
5201,4,216,1,1,1,697,NA,Scene,Exp5,None
5201,4,217,2,0,1,723,NA,Scene,Exp5,None
5201,4,218,0,1,1,609,NA,Scene,Exp5,None
5201,4,219,1,0,1,789,NA,Scene,Exp5,None
5201,4,220,1,1,1,637,NA,Scene,Exp5,None
5201,4,221,2,1,1,595,NA,Scene,Exp5,None
5201,4,222,1,1,1,801,NA,Scene,Exp5,None
5201,4,223,0,0,1,751,NA,Scene,Exp5,None
5201,4,224,1,0,1,855,NA,Scene,Exp5,None
5201,4,225,2,0,1,825,NA,Scene,Exp5,None
5201,4,226,0,0,1,745,NA,Scene,Exp5,None
5201,4,227,0,1,1,489,NA,Scene,Exp5,None
5201,4,228,2,1,1,629,NA,Scene,Exp5,None
5201,4,229,1,1,1,508,NA,Scene,Exp5,None
5201,4,230,1,1,1,516,NA,Scene,Exp5,None
5201,4,231,2,0,1,626,NA,Scene,Exp5,None
5201,4,232,0,0,1,826,NA,Scene,Exp5,None
5201,4,233,1,0,1,778,NA,Scene,Exp5,None
5201,4,234,2,0,1,653,NA,Scene,Exp5,None
5201,4,235,0,1,1,673,NA,Scene,Exp5,None
5201,4,236,2,1,1,737,NA,Scene,Exp5,None
5201,4,237,1,0,1,795,NA,Scene,Exp5,None
5201,4,238,2,1,1,745,NA,Scene,Exp5,None
5201,4,239,0,0,1,657,NA,Scene,Exp5,None
5201,4,240,0,1,1,931,NA,Scene,Exp5,None
5201,5,241,2,0,1,631,NA,Scene,Exp5,None
5201,5,242,2,1,1,711,NA,Scene,Exp5,None
5201,5,243,1,0,1,695,NA,Scene,Exp5,None
5201,5,244,0,1,1,705,NA,Scene,Exp5,None
5201,5,245,1,1,1,1033,NA,Scene,Exp5,None
5201,5,246,2,1,1,553,NA,Scene,Exp5,None
5201,5,247,0,0,1,553,NA,Scene,Exp5,None
5201,5,248,2,0,1,729,NA,Scene,Exp5,None
5201,5,249,0,1,1,622,NA,Scene,Exp5,None
5201,5,250,1,0,1,927,NA,Scene,Exp5,None
5201,5,251,1,1,1,651,NA,Scene,Exp5,None
5201,5,252,0,0,1,759,NA,Scene,Exp5,None
5201,5,253,1,1,1,629,NA,Scene,Exp5,None
5201,5,254,0,1,1,653,NA,Scene,Exp5,None
5201,5,255,2,1,0,681,NA,Scene,Exp5,None
5201,5,256,1,0,1,959,NA,Scene,Exp5,None
5201,5,257,0,0,0,685,NA,Scene,Exp5,None
5201,5,258,1,0,1,833,NA,Scene,Exp5,None
5201,5,259,2,0,1,601,NA,Scene,Exp5,None
5201,5,260,0,1,1,631,NA,Scene,Exp5,None
5201,5,261,2,0,0,943,NA,Scene,Exp5,None
5201,5,262,2,1,1,569,NA,Scene,Exp5,None
5201,5,263,1,1,0,749,NA,Scene,Exp5,None
5201,5,264,0,0,0,621,NA,Scene,Exp5,None
5201,5,265,2,1,0,727,NA,Scene,Exp5,None
5201,5,266,0,1,1,635,NA,Scene,Exp5,None
5201,5,267,2,0,1,681,NA,Scene,Exp5,None
5201,5,268,0,0,1,679,NA,Scene,Exp5,None
5201,5,269,1,1,1,549,NA,Scene,Exp5,None
5201,5,270,1,0,1,693,NA,Scene,Exp5,None
5201,5,271,1,1,1,657,NA,Scene,Exp5,None
5201,5,272,2,0,1,572,NA,Scene,Exp5,None
5201,5,273,0,0,1,648,NA,Scene,Exp5,None
5201,5,274,2,1,1,564,NA,Scene,Exp5,None
5201,5,275,0,1,1,594,NA,Scene,Exp5,None
5201,5,276,1,0,1,714,NA,Scene,Exp5,None
5201,5,277,0,0,1,889,NA,Scene,Exp5,None
5201,5,278,1,1,1,685,NA,Scene,Exp5,None
5201,5,279,1,0,1,545,NA,Scene,Exp5,None
5201,5,280,2,1,1,561,NA,Scene,Exp5,None
5201,5,281,1,1,0,679,NA,Scene,Exp5,None
5201,5,282,2,0,1,861,NA,Scene,Exp5,None
5201,5,283,2,1,0,1055,NA,Scene,Exp5,None
5201,5,284,0,1,1,729,NA,Scene,Exp5,None
5201,5,285,0,1,1,1037,NA,Scene,Exp5,None
5201,5,286,1,0,1,763,NA,Scene,Exp5,None
5201,5,287,2,0,0,689,NA,Scene,Exp5,None
5201,5,288,0,0,0,565,NA,Scene,Exp5,None
5201,5,289,0,0,1,801,NA,Scene,Exp5,None
5201,5,290,0,0,1,559,NA,Scene,Exp5,None
5201,5,291,2,0,1,941,NA,Scene,Exp5,None
5201,5,292,1,0,1,855,NA,Scene,Exp5,None
5201,5,293,1,1,0,785,NA,Scene,Exp5,None
5201,5,294,1,0,1,626,NA,Scene,Exp5,None
5201,5,295,0,1,1,698,NA,Scene,Exp5,None
5201,5,296,2,1,1,636,NA,Scene,Exp5,None
5201,5,297,2,1,1,586,NA,Scene,Exp5,None
5201,5,298,2,0,1,906,NA,Scene,Exp5,None
5201,5,299,1,1,1,994,NA,Scene,Exp5,None
5201,5,300,0,1,1,914,NA,Scene,Exp5,None
5201,6,301,2,0,1,663,NA,Scene,Exp5,None
5201,6,302,2,0,1,569,NA,Scene,Exp5,None
5201,6,303,2,1,1,541,NA,Scene,Exp5,None
5201,6,304,2,1,1,439,NA,Scene,Exp5,None
5201,6,305,0,1,1,573,NA,Scene,Exp5,None
5201,6,306,0,0,0,377,NA,Scene,Exp5,None
5201,6,307,1,0,1,627,NA,Scene,Exp5,None
5201,6,308,0,0,0,523,NA,Scene,Exp5,None
5201,6,309,0,1,1,593,NA,Scene,Exp5,None
5201,6,310,1,0,1,753,NA,Scene,Exp5,None
5201,6,311,1,1,0,561,NA,Scene,Exp5,None
5201,6,312,1,1,0,671,NA,Scene,Exp5,None
5201,6,313,2,1,0,815,NA,Scene,Exp5,None
5201,6,315,1,0,1,790,NA,Scene,Exp5,None
5201,6,316,0,1,1,566,NA,Scene,Exp5,None
5201,6,317,0,0,1,650,NA,Scene,Exp5,None
5201,6,319,2,0,1,622,NA,Scene,Exp5,None
5201,6,320,1,1,1,712,NA,Scene,Exp5,None
5201,6,321,0,0,1,624,NA,Scene,Exp5,None
5201,6,322,2,0,1,674,NA,Scene,Exp5,None
5201,6,323,2,1,1,722,NA,Scene,Exp5,None
5201,6,324,1,0,1,752,NA,Scene,Exp5,None
5201,6,325,0,1,1,576,NA,Scene,Exp5,None
5201,6,326,0,0,1,586,NA,Scene,Exp5,None
5201,6,327,2,0,1,682,NA,Scene,Exp5,None
5201,6,328,0,0,1,680,NA,Scene,Exp5,None
5201,6,329,1,1,1,709,NA,Scene,Exp5,None
5201,6,330,0,1,0,733,NA,Scene,Exp5,None
5201,6,331,1,0,1,1015,NA,Scene,Exp5,None
5201,6,332,2,0,1,641,NA,Scene,Exp5,None
5201,6,333,2,1,1,519,NA,Scene,Exp5,None
5201,6,334,1,1,1,693,NA,Scene,Exp5,None
5201,6,335,1,0,1,513,NA,Scene,Exp5,None
5201,6,336,2,1,1,591,NA,Scene,Exp5,None
5201,6,337,0,1,1,560,NA,Scene,Exp5,None
5201,6,338,2,1,1,574,NA,Scene,Exp5,None
5201,6,339,2,1,1,592,NA,Scene,Exp5,None
5201,6,340,0,1,1,512,NA,Scene,Exp5,None
5201,6,341,0,0,1,536,NA,Scene,Exp5,None
5201,6,342,1,1,1,722,NA,Scene,Exp5,None
5201,6,343,1,0,1,536,NA,Scene,Exp5,None
5201,6,344,1,1,0,714,NA,Scene,Exp5,None
5201,6,345,2,0,1,736,NA,Scene,Exp5,None
5201,6,346,0,0,1,658,NA,Scene,Exp5,None
5201,6,347,1,0,1,948,NA,Scene,Exp5,None
5201,6,348,2,0,1,964,NA,Scene,Exp5,None
5201,6,349,1,1,0,648,NA,Scene,Exp5,None
5201,6,350,0,1,1,620,NA,Scene,Exp5,None
5201,6,351,0,0,1,542,NA,Scene,Exp5,None
5201,6,352,0,0,1,768,NA,Scene,Exp5,None
5201,6,353,1,1,1,820,NA,Scene,Exp5,None
5201,6,354,2,1,1,718,NA,Scene,Exp5,None
5201,6,355,2,0,1,588,NA,Scene,Exp5,None
5201,6,356,2,1,0,836,NA,Scene,Exp5,None
5201,6,357,0,1,1,594,NA,Scene,Exp5,None
5201,6,358,2,0,1,816,NA,Scene,Exp5,None
5201,6,359,1,0,1,857,NA,Scene,Exp5,None
5201,6,360,1,0,1,620,NA,Scene,Exp5,None
5202,1,1,0,0,1,824,NA,Emotion,Exp5,None
5202,1,2,0,0,1,704,NA,Emotion,Exp5,None
5202,1,3,1,1,1,712,NA,Emotion,Exp5,None
5202,1,4,0,1,1,542,NA,Emotion,Exp5,None
5202,1,5,2,0,1,630,NA,Emotion,Exp5,None
5202,1,6,0,1,0,590,NA,Emotion,Exp5,None
5202,1,7,2,1,1,550,NA,Emotion,Exp5,None
5202,1,8,1,0,1,694,NA,Emotion,Exp5,None
5202,1,9,1,0,1,704,NA,Emotion,Exp5,None
5202,1,10,2,1,1,753,NA,Emotion,Exp5,None
5202,1,11,2,0,1,751,NA,Emotion,Exp5,None
5202,1,12,1,1,1,551,NA,Emotion,Exp5,None
5202,1,13,1,1,1,719,NA,Emotion,Exp5,None
5202,1,14,1,0,1,549,NA,Emotion,Exp5,None
5202,1,15,1,0,0,685,NA,Emotion,Exp5,None
5202,1,16,1,1,1,624,NA,Emotion,Exp5,None
5202,1,17,0,1,1,664,NA,Emotion,Exp5,None
5202,1,18,2,1,0,664,NA,Emotion,Exp5,None
5202,1,19,2,1,1,448,NA,Emotion,Exp5,None
5202,1,20,0,0,1,581,NA,Emotion,Exp5,None
5202,1,21,0,0,0,541,NA,Emotion,Exp5,None
5202,1,22,2,0,0,583,NA,Emotion,Exp5,None
5202,1,23,2,0,0,785,NA,Emotion,Exp5,None
5202,1,25,1,1,1,625,NA,Emotion,Exp5,None
5202,1,26,1,0,0,849,NA,Emotion,Exp5,None
5202,1,28,0,0,0,373,NA,Emotion,Exp5,None
5202,1,30,2,1,1,368,NA,Emotion,Exp5,None
5202,1,31,1,0,1,548,NA,Emotion,Exp5,None
5202,1,32,0,1,0,716,NA,Emotion,Exp5,None
5202,1,33,0,1,1,498,NA,Emotion,Exp5,None
5202,1,34,2,1,1,596,NA,Emotion,Exp5,None
5202,1,35,2,0,0,434,NA,Emotion,Exp5,None
5202,1,36,0,0,0,610,NA,Emotion,Exp5,None
5202,1,38,1,0,0,447,NA,Emotion,Exp5,None
5202,1,40,0,1,1,307,NA,Emotion,Exp5,None
5202,1,41,0,0,0,563,NA,Emotion,Exp5,None
5202,1,43,1,1,1,241,NA,Emotion,Exp5,None
5202,1,44,2,1,1,471,NA,Emotion,Exp5,None
5202,1,45,2,1,0,831,NA,Emotion,Exp5,None
5202,1,46,0,0,0,447,NA,Emotion,Exp5,None
5202,1,47,2,0,0,435,NA,Emotion,Exp5,None
5202,1,49,2,1,1,370,NA,Emotion,Exp5,None
5202,1,50,1,1,0,926,NA,Emotion,Exp5,None
5202,1,51,0,0,0,530,NA,Emotion,Exp5,None
5202,1,52,2,1,1,486,NA,Emotion,Exp5,None
5202,1,53,0,1,1,546,NA,Emotion,Exp5,None
5202,1,54,2,0,1,946,NA,Emotion,Exp5,None
5202,1,55,0,0,1,842,NA,Emotion,Exp5,None
5202,1,56,1,0,1,926,NA,Emotion,Exp5,None
5202,1,57,0,1,1,467,NA,Emotion,Exp5,None
5202,1,58,1,0,0,627,NA,Emotion,Exp5,None
5202,1,59,2,0,0,515,NA,Emotion,Exp5,None
5202,1,60,1,1,1,665,NA,Emotion,Exp5,None
5202,2,61,2,0,1,1014,NA,Emotion,Exp5,None
5202,2,62,0,0,0,489,NA,Emotion,Exp5,None
5202,2,63,2,1,1,621,NA,Emotion,Exp5,None
5202,2,64,0,1,1,543,NA,Emotion,Exp5,None
5202,2,65,1,0,1,751,NA,Emotion,Exp5,None
5202,2,66,1,1,1,629,NA,Emotion,Exp5,None
5202,2,67,0,1,1,773,NA,Emotion,Exp5,None
5202,2,68,2,0,0,831,NA,Emotion,Exp5,None
5202,2,69,0,0,0,463,NA,Emotion,Exp5,None
5202,2,70,1,0,0,665,NA,Emotion,Exp5,None
5202,2,71,2,1,1,473,NA,Emotion,Exp5,None
5202,2,72,1,1,0,576,NA,Emotion,Exp5,None
5202,2,74,2,1,1,666,NA,Emotion,Exp5,None
5202,2,75,1,0,1,1042,NA,Emotion,Exp5,None
5202,2,76,1,1,1,798,NA,Emotion,Exp5,None
5202,2,77,0,1,1,620,NA,Emotion,Exp5,None
5202,2,78,0,0,1,870,NA,Emotion,Exp5,None
5202,2,79,0,0,1,822,NA,Emotion,Exp5,None
5202,2,80,2,0,1,767,NA,Emotion,Exp5,None
5202,2,81,0,1,1,547,NA,Emotion,Exp5,None
5202,2,82,2,1,1,771,NA,Emotion,Exp5,None
5202,2,83,1,1,1,759,NA,Emotion,Exp5,None
5202,2,84,1,0,0,789,NA,Emotion,Exp5,None
5202,2,85,1,1,0,725,NA,Emotion,Exp5,None
5202,2,86,0,0,0,481,NA,Emotion,Exp5,None
5202,2,87,0,1,1,535,NA,Emotion,Exp5,None
5202,2,88,0,0,1,721,NA,Emotion,Exp5,None
5202,2,89,1,0,1,694,NA,Emotion,Exp5,None
5202,2,90,2,1,1,600,NA,Emotion,Exp5,None
5202,2,91,1,0,0,646,NA,Emotion,Exp5,None
5202,2,92,2,0,0,434,NA,Emotion,Exp5,None
5202,2,93,2,1,0,754,NA,Emotion,Exp5,None
5202,2,94,1,1,1,392,NA,Emotion,Exp5,None
5202,2,95,2,0,0,470,NA,Emotion,Exp5,None
5202,2,96,0,1,1,438,NA,Emotion,Exp5,None
5202,2,97,0,0,1,468,NA,Emotion,Exp5,None
5202,2,98,1,1,1,532,NA,Emotion,Exp5,None
5202,2,99,1,0,1,646,NA,Emotion,Exp5,None
5202,2,100,1,1,0,811,NA,Emotion,Exp5,None
5202,2,101,0,1,1,431,NA,Emotion,Exp5,None
5202,2,102,0,0,1,663,NA,Emotion,Exp5,None
5202,2,103,2,1,1,623,NA,Emotion,Exp5,None
5202,2,104,2,0,0,719,NA,Emotion,Exp5,None
5202,2,105,1,0,1,668,NA,Emotion,Exp5,None
5202,2,106,2,1,0,733,NA,Emotion,Exp5,None
5202,2,107,2,0,0,537,NA,Emotion,Exp5,None
5202,2,108,0,1,0,650,NA,Emotion,Exp5,None
5202,2,109,0,1,1,1039,NA,Emotion,Exp5,None
5202,2,110,1,0,1,605,NA,Emotion,Exp5,None
5202,2,111,2,0,1,721,NA,Emotion,Exp5,None
5202,2,112,1,0,1,869,NA,Emotion,Exp5,None
5202,2,113,2,0,1,693,NA,Emotion,Exp5,None
5202,2,114,0,0,1,951,NA,Emotion,Exp5,None
5202,2,115,2,1,0,533,NA,Emotion,Exp5,None
5202,2,116,1,1,1,527,NA,Emotion,Exp5,None
5202,2,117,1,1,1,499,NA,Emotion,Exp5,None
5202,2,118,0,0,1,614,NA,Emotion,Exp5,None
5202,2,119,2,1,1,624,NA,Emotion,Exp5,None
5202,2,120,0,1,0,504,NA,Emotion,Exp5,None
5202,3,121,2,0,1,898,NA,Emotion,Exp5,None
5202,3,122,2,1,1,820,NA,Emotion,Exp5,None
5202,3,123,1,1,1,599,NA,Emotion,Exp5,None
5202,3,124,0,0,1,725,NA,Emotion,Exp5,None
5202,3,125,2,0,0,857,NA,Emotion,Exp5,None
5202,3,126,1,0,1,1011,NA,Emotion,Exp5,None
5202,3,127,0,0,1,911,NA,Emotion,Exp5,None
5202,3,128,0,1,1,549,NA,Emotion,Exp5,None
5202,3,129,1,0,0,549,NA,Emotion,Exp5,None
5202,3,130,2,1,0,405,NA,Emotion,Exp5,None
5202,3,131,1,1,1,473,NA,Emotion,Exp5,None
5202,3,132,0,1,0,576,NA,Emotion,Exp5,None
5202,3,133,0,1,1,554,NA,Emotion,Exp5,None
5202,3,134,2,1,0,640,NA,Emotion,Exp5,None
5202,3,135,0,0,0,518,NA,Emotion,Exp5,None
5202,3,136,2,0,0,388,NA,Emotion,Exp5,None
5202,3,138,0,0,0,524,NA,Emotion,Exp5,None
5202,3,139,2,0,0,760,NA,Emotion,Exp5,None
5202,3,141,1,0,1,743,NA,Emotion,Exp5,None
5202,3,142,1,1,1,655,NA,Emotion,Exp5,None
5202,3,143,1,1,1,633,NA,Emotion,Exp5,None
5202,3,144,0,1,1,735,NA,Emotion,Exp5,None
5202,3,145,0,0,1,873,NA,Emotion,Exp5,None
5202,3,146,2,0,1,775,NA,Emotion,Exp5,None
5202,3,147,2,1,0,921,NA,Emotion,Exp5,None
5202,3,148,0,1,1,583,NA,Emotion,Exp5,None
5202,3,149,0,0,0,487,NA,Emotion,Exp5,None
5202,3,150,1,0,1,907,NA,Emotion,Exp5,None
5202,3,151,2,1,0,491,NA,Emotion,Exp5,None
5202,3,152,1,1,1,831,NA,Emotion,Exp5,None
5202,3,153,1,0,1,765,NA,Emotion,Exp5,None
5202,3,154,2,0,1,801,NA,Emotion,Exp5,None
5202,3,156,0,1,1,1053,NA,Emotion,Exp5,None
5202,3,157,2,1,1,735,NA,Emotion,Exp5,None
5202,3,158,0,0,1,738,NA,Emotion,Exp5,None
5202,3,159,0,1,1,468,NA,Emotion,Exp5,None
5202,3,160,2,1,0,452,NA,Emotion,Exp5,None
5202,3,162,1,1,1,960,NA,Emotion,Exp5,None
5202,3,163,1,1,1,470,NA,Emotion,Exp5,None
5202,3,164,2,0,1,478,NA,Emotion,Exp5,None
5202,3,165,0,0,0,484,NA,Emotion,Exp5,None
5202,3,166,1,0,0,664,NA,Emotion,Exp5,None
5202,3,167,0,1,1,544,NA,Emotion,Exp5,None
5202,3,168,1,0,1,665,NA,Emotion,Exp5,None
5202,3,169,0,1,0,641,NA,Emotion,Exp5,None
5202,3,170,1,0,1,599,NA,Emotion,Exp5,None
5202,3,171,1,1,1,693,NA,Emotion,Exp5,None
5202,3,172,1,1,1,519,NA,Emotion,Exp5,None
5202,3,173,0,0,0,621,NA,Emotion,Exp5,None
5202,3,174,0,1,1,487,NA,Emotion,Exp5,None
5202,3,175,2,0,1,531,NA,Emotion,Exp5,None
5202,3,176,2,1,1,485,NA,Emotion,Exp5,None
5202,3,179,0,0,0,506,NA,Emotion,Exp5,None
5202,3,180,1,0,1,794,NA,Emotion,Exp5,None
5202,4,181,0,0,1,697,NA,Emotion,Exp5,None
5202,4,182,1,0,1,707,NA,Emotion,Exp5,None
5202,4,183,0,1,1,676,NA,Emotion,Exp5,None
5202,4,185,0,0,1,769,NA,Emotion,Exp5,None
5202,4,186,2,0,1,869,NA,Emotion,Exp5,None
5202,4,187,1,0,1,709,NA,Emotion,Exp5,None
5202,4,188,0,1,1,685,NA,Emotion,Exp5,None
5202,4,189,2,1,1,609,NA,Emotion,Exp5,None
5202,4,190,2,1,1,557,NA,Emotion,Exp5,None
5202,4,191,1,1,1,892,NA,Emotion,Exp5,None
5202,4,192,1,1,1,406,NA,Emotion,Exp5,None
5202,4,193,1,0,1,738,NA,Emotion,Exp5,None
5202,4,194,1,0,1,700,NA,Emotion,Exp5,None
5202,4,195,0,0,0,646,NA,Emotion,Exp5,None
5202,4,196,2,0,0,602,NA,Emotion,Exp5,None
5202,4,197,2,0,1,728,NA,Emotion,Exp5,None
5202,4,198,1,1,1,796,NA,Emotion,Exp5,None
5202,4,199,0,1,1,650,NA,Emotion,Exp5,None
5202,4,200,1,1,0,607,NA,Emotion,Exp5,None
5202,4,202,2,1,1,499,NA,Emotion,Exp5,None
5202,4,203,0,1,1,597,NA,Emotion,Exp5,None
5202,4,204,0,0,0,483,NA,Emotion,Exp5,None
5202,4,205,0,0,1,825,NA,Emotion,Exp5,None
5202,4,206,2,1,1,745,NA,Emotion,Exp5,None
5202,4,207,0,1,1,769,NA,Emotion,Exp5,None
5202,4,208,0,0,0,573,NA,Emotion,Exp5,None
5202,4,210,1,0,1,928,NA,Emotion,Exp5,None
5202,4,211,2,0,1,892,NA,Emotion,Exp5,None
5202,4,212,1,1,1,494,NA,Emotion,Exp5,None
5202,4,213,0,1,1,616,NA,Emotion,Exp5,None
5202,4,214,1,1,1,650,NA,Emotion,Exp5,None
5202,4,215,2,0,1,1030,NA,Emotion,Exp5,None
5202,4,216,1,0,1,766,NA,Emotion,Exp5,None
5202,4,217,1,1,1,682,NA,Emotion,Exp5,None
5202,4,218,0,1,1,855,NA,Emotion,Exp5,None
5202,4,219,1,1,0,641,NA,Emotion,Exp5,None
5202,4,221,2,0,0,511,NA,Emotion,Exp5,None
5202,4,222,0,1,1,607,NA,Emotion,Exp5,None
5202,4,223,0,0,1,611,NA,Emotion,Exp5,None
5202,4,224,0,0,1,845,NA,Emotion,Exp5,None
5202,4,225,2,0,1,569,NA,Emotion,Exp5,None
5202,4,226,2,1,1,893,NA,Emotion,Exp5,None
5202,4,227,2,1,1,592,NA,Emotion,Exp5,None
5202,4,229,0,0,0,821,NA,Emotion,Exp5,None
5202,4,233,0,1,1,599,NA,Emotion,Exp5,None
5202,4,234,1,1,0,605,NA,Emotion,Exp5,None
5202,4,235,0,1,1,578,NA,Emotion,Exp5,None
5202,4,236,2,1,1,732,NA,Emotion,Exp5,None
5202,4,237,1,0,1,662,NA,Emotion,Exp5,None
5202,4,238,1,0,1,726,NA,Emotion,Exp5,None
5202,4,239,2,1,0,786,NA,Emotion,Exp5,None
5202,4,240,0,0,0,482,NA,Emotion,Exp5,None
5202,5,241,1,1,1,714,NA,Emotion,Exp5,None
5202,5,242,0,1,1,552,NA,Emotion,Exp5,None
5202,5,243,2,0,1,550,NA,Emotion,Exp5,None
5202,5,244,1,1,1,582,NA,Emotion,Exp5,None
5202,5,245,0,0,1,566,NA,Emotion,Exp5,None
5202,5,246,0,1,1,538,NA,Emotion,Exp5,None
5202,5,247,1,0,0,637,NA,Emotion,Exp5,None
5202,5,248,2,0,0,579,NA,Emotion,Exp5,None
5202,5,249,1,0,1,749,NA,Emotion,Exp5,None
5202,5,250,0,0,1,733,NA,Emotion,Exp5,None
5202,5,251,2,1,1,559,NA,Emotion,Exp5,None
5202,5,252,2,1,1,533,NA,Emotion,Exp5,None
5202,5,253,1,1,0,631,NA,Emotion,Exp5,None
5202,5,254,0,1,1,607,NA,Emotion,Exp5,None
5202,5,255,0,1,1,499,NA,Emotion,Exp5,None
5202,5,256,1,0,1,630,NA,Emotion,Exp5,None
5202,5,257,1,0,1,766,NA,Emotion,Exp5,None
5202,5,258,2,1,1,770,NA,Emotion,Exp5,None
5202,5,259,2,0,1,742,NA,Emotion,Exp5,None
5202,5,260,0,0,0,606,NA,Emotion,Exp5,None
5202,5,261,2,1,1,633,NA,Emotion,Exp5,None
5202,5,262,2,0,1,623,NA,Emotion,Exp5,None
5202,5,263,0,0,0,759,NA,Emotion,Exp5,None
5202,5,264,1,1,1,693,NA,Emotion,Exp5,None
5202,5,265,2,1,1,808,NA,Emotion,Exp5,None
5202,5,266,1,1,1,940,NA,Emotion,Exp5,None
5202,5,267,2,1,1,702,NA,Emotion,Exp5,None
5202,5,268,1,0,1,742,NA,Emotion,Exp5,None
5202,5,269,2,0,0,638,NA,Emotion,Exp5,None
5202,5,271,0,0,0,612,NA,Emotion,Exp5,None
5202,5,272,2,0,1,1072,NA,Emotion,Exp5,None
5202,5,273,0,1,0,606,NA,Emotion,Exp5,None
5202,5,275,0,1,1,587,NA,Emotion,Exp5,None
5202,5,278,0,0,1,657,NA,Emotion,Exp5,None
5202,5,279,0,1,1,555,NA,Emotion,Exp5,None
5202,5,280,2,0,1,649,NA,Emotion,Exp5,None
5202,5,281,1,1,1,661,NA,Emotion,Exp5,None
5202,5,282,1,1,0,678,NA,Emotion,Exp5,None
5202,5,289,0,1,1,917,NA,Emotion,Exp5,None
5202,5,290,2,1,1,931,NA,Emotion,Exp5,None
5202,5,291,0,1,1,799,NA,Emotion,Exp5,None
5202,5,294,0,0,0,511,NA,Emotion,Exp5,None
5202,5,295,2,0,1,415,NA,Emotion,Exp5,None
5202,5,296,2,0,0,1033,NA,Emotion,Exp5,None
5202,5,297,1,1,1,257,NA,Emotion,Exp5,None
5202,5,298,1,1,1,684,NA,Emotion,Exp5,None
5202,5,299,1,0,1,864,NA,Emotion,Exp5,None
5202,5,300,1,0,0,400,NA,Emotion,Exp5,None
5202,6,301,1,0,1,902,NA,Emotion,Exp5,None
5202,6,302,2,1,1,574,NA,Emotion,Exp5,None
5202,6,303,2,0,1,601,NA,Emotion,Exp5,None
5202,6,304,1,1,0,615,NA,Emotion,Exp5,None
5202,6,305,0,0,0,513,NA,Emotion,Exp5,None
5202,6,306,1,1,0,529,NA,Emotion,Exp5,None
5202,6,307,2,0,0,301,NA,Emotion,Exp5,None
5202,6,308,2,1,0,639,NA,Emotion,Exp5,None
5202,6,309,0,1,1,517,NA,Emotion,Exp5,None
5202,6,310,0,0,0,539,NA,Emotion,Exp5,None
5202,6,311,0,1,1,853,NA,Emotion,Exp5,None
5202,6,312,1,0,1,831,NA,Emotion,Exp5,None
5202,6,313,1,0,0,630,NA,Emotion,Exp5,None
5202,6,314,0,0,0,670,NA,Emotion,Exp5,None
5202,6,315,1,1,0,726,NA,Emotion,Exp5,None
5202,6,316,2,1,1,842,NA,Emotion,Exp5,None
5202,6,317,2,1,1,654,NA,Emotion,Exp5,None
5202,6,318,2,0,1,664,NA,Emotion,Exp5,None
5202,6,319,2,0,0,624,NA,Emotion,Exp5,None
5202,6,320,0,1,1,400,NA,Emotion,Exp5,None
5202,6,321,1,0,1,878,NA,Emotion,Exp5,None
5202,6,322,1,1,0,749,NA,Emotion,Exp5,None
5202,6,323,0,1,1,925,NA,Emotion,Exp5,None
5202,6,324,0,0,1,809,NA,Emotion,Exp5,None
5202,6,325,1,1,1,701,NA,Emotion,Exp5,None
5202,6,326,0,1,1,543,NA,Emotion,Exp5,None
5202,6,327,2,0,1,607,NA,Emotion,Exp5,None
5202,6,328,2,1,1,571,NA,Emotion,Exp5,None
5202,6,329,1,1,0,639,NA,Emotion,Exp5,None
5202,6,330,0,0,0,541,NA,Emotion,Exp5,None
5202,6,331,0,1,1,696,NA,Emotion,Exp5,None
5202,6,332,1,0,1,626,NA,Emotion,Exp5,None
5202,6,333,2,1,1,850,NA,Emotion,Exp5,None
5202,6,334,2,0,0,934,NA,Emotion,Exp5,None
5202,6,335,0,0,1,754,NA,Emotion,Exp5,None
5202,6,336,1,0,1,936,NA,Emotion,Exp5,None
5202,6,337,2,1,1,665,NA,Emotion,Exp5,None
5202,6,338,1,1,1,721,NA,Emotion,Exp5,None
5202,6,339,2,1,1,1022,NA,Emotion,Exp5,None
5202,6,340,0,1,1,638,NA,Emotion,Exp5,None
5202,6,341,0,0,1,796,NA,Emotion,Exp5,None
5202,6,342,2,0,0,778,NA,Emotion,Exp5,None
5202,6,343,2,0,0,876,NA,Emotion,Exp5,None
5202,6,344,1,0,1,1002,NA,Emotion,Exp5,None
5202,6,345,0,1,0,894,NA,Emotion,Exp5,None
5202,6,346,1,0,1,968,NA,Emotion,Exp5,None
5202,6,347,0,0,0,837,NA,Emotion,Exp5,None
5202,6,349,1,1,1,715,NA,Emotion,Exp5,None
5202,6,352,0,0,1,289,NA,Emotion,Exp5,None
5202,6,354,2,1,1,869,NA,Emotion,Exp5,None
5202,6,355,1,1,1,790,NA,Emotion,Exp5,None
5202,6,356,0,1,1,622,NA,Emotion,Exp5,None
5202,6,357,1,0,1,614,NA,Emotion,Exp5,None
5202,6,358,2,1,1,648,NA,Emotion,Exp5,None
5202,6,359,0,1,1,908,NA,Emotion,Exp5,None
5202,6,360,1,0,1,596,NA,Emotion,Exp5,None
5202,1,1,1,1,1,825,NA,Scene,Exp5,None
5202,1,2,2,0,1,697,NA,Scene,Exp5,None
5202,1,3,0,1,1,643,NA,Scene,Exp5,None
5202,1,4,0,0,1,745,NA,Scene,Exp5,None
5202,1,5,1,1,1,585,NA,Scene,Exp5,None
5202,1,6,1,0,0,522,NA,Scene,Exp5,None
5202,1,7,0,0,0,560,NA,Scene,Exp5,None
5202,1,8,0,1,1,606,NA,Scene,Exp5,None
5202,1,9,2,1,1,802,NA,Scene,Exp5,None
5202,1,10,2,0,1,680,NA,Scene,Exp5,None
5202,1,11,2,1,0,574,NA,Scene,Exp5,None
5202,1,12,1,0,1,784,NA,Scene,Exp5,None
5202,1,13,1,1,1,496,NA,Scene,Exp5,None
5202,1,14,1,0,1,826,NA,Scene,Exp5,None
5202,1,15,0,1,1,571,NA,Scene,Exp5,None
5202,1,16,0,0,1,663,NA,Scene,Exp5,None
5202,1,17,2,0,1,793,NA,Scene,Exp5,None
5202,1,18,2,0,1,728,NA,Scene,Exp5,None
5202,1,19,2,1,1,605,NA,Scene,Exp5,None
5202,1,20,0,0,0,720,NA,Scene,Exp5,None
5202,1,21,1,1,1,750,NA,Scene,Exp5,None
5202,1,22,2,1,0,622,NA,Scene,Exp5,None
5202,1,23,0,1,1,528,NA,Scene,Exp5,None
5202,1,24,1,0,1,541,NA,Scene,Exp5,None
5202,1,25,1,0,0,471,NA,Scene,Exp5,None
5202,1,26,0,0,0,455,NA,Scene,Exp5,None
5202,1,27,0,1,1,593,NA,Scene,Exp5,None
5202,1,28,1,0,1,881,NA,Scene,Exp5,None
5202,1,29,0,0,0,847,NA,Scene,Exp5,None
5202,1,30,2,0,0,595,NA,Scene,Exp5,None
5202,1,31,0,1,1,745,NA,Scene,Exp5,None
5202,1,32,1,1,1,633,NA,Scene,Exp5,None
5202,1,33,2,1,0,616,NA,Scene,Exp5,None
5202,1,34,2,1,1,850,NA,Scene,Exp5,None
5202,1,35,2,0,1,654,NA,Scene,Exp5,None
5202,1,36,1,1,1,720,NA,Scene,Exp5,None
5202,1,37,2,1,1,718,NA,Scene,Exp5,None
5202,1,38,0,1,1,596,NA,Scene,Exp5,None
5202,1,43,2,0,0,845,NA,Scene,Exp5,None
5202,1,44,0,1,1,985,NA,Scene,Exp5,None
5202,1,45,0,0,1,665,NA,Scene,Exp5,None
5202,1,46,1,1,1,833,NA,Scene,Exp5,None
5202,1,47,1,0,0,561,NA,Scene,Exp5,None
5202,1,50,1,1,1,728,NA,Scene,Exp5,None
5202,1,51,0,1,1,556,NA,Scene,Exp5,None
5202,1,52,0,0,1,650,NA,Scene,Exp5,None
5202,1,53,0,0,1,846,NA,Scene,Exp5,None
5202,1,54,2,0,1,850,NA,Scene,Exp5,None
5202,1,55,1,0,1,766,NA,Scene,Exp5,None
5202,1,56,1,0,1,802,NA,Scene,Exp5,None
5202,1,57,0,1,1,760,NA,Scene,Exp5,None
5202,1,58,1,1,0,630,NA,Scene,Exp5,None
5202,1,59,2,1,1,823,NA,Scene,Exp5,None
5202,1,60,2,1,1,569,NA,Scene,Exp5,None
5202,2,61,0,0,1,863,NA,Scene,Exp5,None
5202,2,62,2,0,1,623,NA,Scene,Exp5,None
5202,2,63,2,1,1,864,NA,Scene,Exp5,None
5202,2,64,1,0,1,728,NA,Scene,Exp5,None
5202,2,65,0,1,1,508,NA,Scene,Exp5,None
5202,2,66,2,1,0,564,NA,Scene,Exp5,None
5202,2,67,0,1,1,560,NA,Scene,Exp5,None
5202,2,68,1,1,1,702,NA,Scene,Exp5,None
5202,2,69,0,0,1,640,NA,Scene,Exp5,None
5202,2,70,1,0,0,662,NA,Scene,Exp5,None
5202,2,71,2,0,1,768,NA,Scene,Exp5,None
5202,2,72,1,1,1,645,NA,Scene,Exp5,None
5202,2,73,2,0,1,769,NA,Scene,Exp5,None
5202,2,74,1,1,1,797,NA,Scene,Exp5,None
5202,2,75,2,1,1,643,NA,Scene,Exp5,None
5202,2,76,1,0,1,673,NA,Scene,Exp5,None
5202,2,77,2,1,1,697,NA,Scene,Exp5,None
5202,2,78,1,1,1,747,NA,Scene,Exp5,None
5202,2,79,0,0,1,707,NA,Scene,Exp5,None
5202,2,80,0,0,0,611,NA,Scene,Exp5,None
5202,2,81,0,1,1,744,NA,Scene,Exp5,None
5202,2,82,1,0,1,760,NA,Scene,Exp5,None
5202,2,83,0,1,0,870,NA,Scene,Exp5,None
5202,2,84,2,0,0,438,NA,Scene,Exp5,None
5202,2,85,1,0,1,932,NA,Scene,Exp5,None
5202,2,86,2,0,1,888,NA,Scene,Exp5,None
5202,2,87,2,1,1,860,NA,Scene,Exp5,None
5202,2,88,0,0,1,854,NA,Scene,Exp5,None
5202,2,89,1,1,1,681,NA,Scene,Exp5,None
5202,2,90,1,0,1,655,NA,Scene,Exp5,None
5202,2,91,0,1,1,513,NA,Scene,Exp5,None
5202,2,92,1,1,1,569,NA,Scene,Exp5,None
5202,2,93,2,1,0,573,NA,Scene,Exp5,None
5202,2,94,0,0,0,529,NA,Scene,Exp5,None
5202,2,95,2,0,1,789,NA,Scene,Exp5,None
5202,2,96,0,1,1,709,NA,Scene,Exp5,None
5202,2,97,2,1,0,645,NA,Scene,Exp5,None
5202,2,98,1,0,0,1017,NA,Scene,Exp5,None
5202,2,99,1,0,1,915,NA,Scene,Exp5,None
5202,2,100,2,1,1,873,NA,Scene,Exp5,None
5202,2,101,0,1,1,905,NA,Scene,Exp5,None
5202,2,102,0,0,0,721,NA,Scene,Exp5,None
5202,2,103,2,0,1,767,NA,Scene,Exp5,None
5202,2,104,0,1,1,515,NA,Scene,Exp5,None
5202,2,105,1,1,1,689,NA,Scene,Exp5,None
5202,2,106,1,1,1,605,NA,Scene,Exp5,None
5202,2,107,2,0,1,594,NA,Scene,Exp5,None
5202,2,108,0,0,1,704,NA,Scene,Exp5,None
5202,2,111,2,1,1,784,NA,Scene,Exp5,None
5202,2,112,0,1,1,856,NA,Scene,Exp5,None
5202,2,113,1,0,1,762,NA,Scene,Exp5,None
5202,2,114,1,0,0,512,NA,Scene,Exp5,None
5202,2,115,1,1,1,441,NA,Scene,Exp5,None
5202,2,116,0,1,1,679,NA,Scene,Exp5,None
5202,2,117,2,0,1,661,NA,Scene,Exp5,None
5202,2,118,0,0,1,735,NA,Scene,Exp5,None
5202,2,119,2,0,1,697,NA,Scene,Exp5,None
5202,2,120,1,1,1,659,NA,Scene,Exp5,None
5202,3,121,1,0,1,670,NA,Scene,Exp5,None
5202,3,122,0,0,0,694,NA,Scene,Exp5,None
5202,3,123,0,0,1,704,NA,Scene,Exp5,None
5202,3,124,2,1,0,720,NA,Scene,Exp5,None
5202,3,125,0,1,1,462,NA,Scene,Exp5,None
5202,3,126,0,1,1,600,NA,Scene,Exp5,None
5202,3,127,2,0,1,566,NA,Scene,Exp5,None
5202,3,128,1,1,1,579,NA,Scene,Exp5,None
5202,3,129,2,0,1,469,NA,Scene,Exp5,None
5202,3,130,2,1,1,445,NA,Scene,Exp5,None
5202,3,131,1,1,1,553,NA,Scene,Exp5,None
5202,3,132,1,0,0,593,NA,Scene,Exp5,None
5202,3,133,0,0,0,489,NA,Scene,Exp5,None
5202,3,134,0,0,0,285,NA,Scene,Exp5,None
5202,3,135,1,1,1,281,NA,Scene,Exp5,None
5202,3,136,1,0,0,583,NA,Scene,Exp5,None
5202,3,137,0,1,0,353,NA,Scene,Exp5,None
5202,3,139,2,1,1,873,NA,Scene,Exp5,None
5202,3,140,2,0,1,698,NA,Scene,Exp5,None
5202,3,141,0,1,1,507,NA,Scene,Exp5,None
5202,3,142,1,1,1,571,NA,Scene,Exp5,None
5202,3,143,2,1,1,639,NA,Scene,Exp5,None
5202,3,144,1,0,0,573,NA,Scene,Exp5,None
5202,3,145,2,1,1,399,NA,Scene,Exp5,None
5202,3,146,2,0,1,965,NA,Scene,Exp5,None
5202,3,147,2,0,0,785,NA,Scene,Exp5,None
5202,3,148,0,0,0,674,NA,Scene,Exp5,None
5202,3,149,1,0,0,544,NA,Scene,Exp5,None
5202,3,150,0,1,1,712,NA,Scene,Exp5,None
5202,3,151,0,0,1,696,NA,Scene,Exp5,None
5202,3,152,1,1,1,586,NA,Scene,Exp5,None
5202,3,153,0,1,1,682,NA,Scene,Exp5,None
5202,3,154,1,1,0,696,NA,Scene,Exp5,None
5202,3,155,1,0,0,882,NA,Scene,Exp5,None
5202,3,156,2,1,1,560,NA,Scene,Exp5,None
5202,3,157,0,1,1,575,NA,Scene,Exp5,None
5202,3,158,1,0,1,705,NA,Scene,Exp5,None
5202,3,159,2,0,1,777,NA,Scene,Exp5,None
5202,3,160,0,1,1,595,NA,Scene,Exp5,None
5202,3,161,0,0,1,617,NA,Scene,Exp5,None
5202,3,162,2,1,1,819,NA,Scene,Exp5,None
5202,3,163,0,0,1,1037,NA,Scene,Exp5,None
5202,3,164,1,0,0,547,NA,Scene,Exp5,None
5202,3,165,1,1,1,1099,NA,Scene,Exp5,None
5202,3,166,2,1,0,782,NA,Scene,Exp5,None
5202,3,167,2,0,0,928,NA,Scene,Exp5,None
5202,3,169,1,1,1,732,NA,Scene,Exp5,None
5202,3,171,2,1,1,608,NA,Scene,Exp5,None
5202,3,172,1,0,1,772,NA,Scene,Exp5,None
5202,3,173,2,0,0,537,NA,Scene,Exp5,None
5202,3,174,0,0,0,267,NA,Scene,Exp5,None
5202,3,175,0,0,0,715,NA,Scene,Exp5,None
5202,3,177,0,1,1,929,NA,Scene,Exp5,None
5202,3,178,0,1,1,981,NA,Scene,Exp5,None
5202,3,179,1,0,1,647,NA,Scene,Exp5,None
5202,3,180,2,0,1,747,NA,Scene,Exp5,None
5202,4,181,2,1,1,953,NA,Scene,Exp5,None
5202,4,182,0,1,1,711,NA,Scene,Exp5,None
5202,4,183,1,0,0,631,NA,Scene,Exp5,None
5202,4,184,0,0,0,727,NA,Scene,Exp5,None
5202,4,185,0,1,1,611,NA,Scene,Exp5,None
5202,4,186,1,1,1,696,NA,Scene,Exp5,None
5202,4,187,1,0,0,682,NA,Scene,Exp5,None
5202,4,188,1,1,1,600,NA,Scene,Exp5,None
5202,4,189,0,0,1,822,NA,Scene,Exp5,None
5202,4,190,2,0,0,528,NA,Scene,Exp5,None
5202,4,193,0,0,0,932,NA,Scene,Exp5,None
5202,4,194,1,0,1,952,NA,Scene,Exp5,None
5202,4,195,2,1,0,881,NA,Scene,Exp5,None
5202,4,196,0,1,1,591,NA,Scene,Exp5,None
5202,4,197,2,0,0,559,NA,Scene,Exp5,None
5202,4,198,2,1,0,901,NA,Scene,Exp5,None
5202,4,200,1,1,1,1095,NA,Scene,Exp5,None
5202,4,201,0,1,1,545,NA,Scene,Exp5,None
5202,4,202,1,0,0,857,NA,Scene,Exp5,None
5202,4,203,1,1,0,804,NA,Scene,Exp5,None
5202,4,204,0,0,1,864,NA,Scene,Exp5,None
5202,4,205,2,0,1,848,NA,Scene,Exp5,None
5202,4,206,1,1,1,612,NA,Scene,Exp5,None
5202,4,207,0,1,1,664,NA,Scene,Exp5,None
5202,4,208,0,0,1,672,NA,Scene,Exp5,None
5202,4,209,1,0,0,744,NA,Scene,Exp5,None
5202,4,210,1,1,0,848,NA,Scene,Exp5,None
5202,4,211,2,0,1,853,NA,Scene,Exp5,None
5202,4,212,2,1,1,705,NA,Scene,Exp5,None
5202,4,213,0,0,1,825,NA,Scene,Exp5,None
5202,4,214,1,0,0,489,NA,Scene,Exp5,None
5202,4,215,0,1,1,613,NA,Scene,Exp5,None
5202,4,216,2,1,0,577,NA,Scene,Exp5,None
5202,4,217,2,1,0,811,NA,Scene,Exp5,None
5202,4,218,2,0,0,607,NA,Scene,Exp5,None
5202,4,219,2,1,1,995,NA,Scene,Exp5,None
5202,4,220,1,1,1,650,NA,Scene,Exp5,None
5202,4,221,1,0,1,686,NA,Scene,Exp5,None
5202,4,222,1,0,0,602,NA,Scene,Exp5,None
5202,4,223,1,1,1,648,NA,Scene,Exp5,None
5202,4,224,0,0,1,700,NA,Scene,Exp5,None
5202,4,225,2,0,1,838,NA,Scene,Exp5,None
5202,4,226,0,1,1,491,NA,Scene,Exp5,None
5202,4,227,0,1,1,567,NA,Scene,Exp5,None
5202,4,228,0,0,1,651,NA,Scene,Exp5,None
5202,4,229,1,1,1,584,NA,Scene,Exp5,None
5202,4,230,2,0,1,528,NA,Scene,Exp5,None
5202,4,231,1,0,0,436,NA,Scene,Exp5,None
5202,4,232,1,1,1,306,NA,Scene,Exp5,None
5202,4,233,1,0,0,554,NA,Scene,Exp5,None
5202,4,237,0,0,1,836,NA,Scene,Exp5,None
5202,4,238,2,0,1,674,NA,Scene,Exp5,None
5202,4,239,2,1,1,649,NA,Scene,Exp5,None
5202,4,240,0,1,1,693,NA,Scene,Exp5,None
5202,5,242,1,1,1,658,NA,Scene,Exp5,None
5202,5,243,0,1,1,684,NA,Scene,Exp5,None
5202,5,244,2,1,0,560,NA,Scene,Exp5,None
5202,5,245,2,1,1,574,NA,Scene,Exp5,None
5202,5,246,0,0,1,696,NA,Scene,Exp5,None
5202,5,247,1,1,1,570,NA,Scene,Exp5,None
5202,5,248,1,0,0,581,NA,Scene,Exp5,None
5202,5,249,0,0,0,680,NA,Scene,Exp5,None
5202,5,250,2,0,1,925,NA,Scene,Exp5,None
5202,5,251,0,1,1,634,NA,Scene,Exp5,None
5202,5,252,1,0,0,704,NA,Scene,Exp5,None
5202,5,253,0,1,1,576,NA,Scene,Exp5,None
5202,5,254,0,0,1,730,NA,Scene,Exp5,None
5202,5,255,1,0,0,550,NA,Scene,Exp5,None
5202,5,256,0,0,1,694,NA,Scene,Exp5,None
5202,5,257,2,1,1,752,NA,Scene,Exp5,None
5202,5,258,2,1,1,744,NA,Scene,Exp5,None
5202,5,259,1,0,1,680,NA,Scene,Exp5,None
5202,5,260,2,0,1,855,NA,Scene,Exp5,None
5202,5,261,0,1,1,481,NA,Scene,Exp5,None
5202,5,262,2,0,1,663,NA,Scene,Exp5,None
5202,5,263,1,1,1,457,NA,Scene,Exp5,None
5202,5,264,1,1,1,811,NA,Scene,Exp5,None
5202,5,265,2,0,0,639,NA,Scene,Exp5,None
5202,5,266,2,1,1,557,NA,Scene,Exp5,None
5202,5,267,2,1,1,523,NA,Scene,Exp5,None
5202,5,268,0,0,0,641,NA,Scene,Exp5,None
5202,5,269,1,0,1,1016,NA,Scene,Exp5,None
5202,5,270,1,1,1,786,NA,Scene,Exp5,None
5202,5,271,1,0,0,530,NA,Scene,Exp5,None
5202,5,272,0,1,1,518,NA,Scene,Exp5,None
5202,5,273,1,1,0,684,NA,Scene,Exp5,None
5202,5,274,0,0,0,392,NA,Scene,Exp5,None
5202,5,275,2,0,1,408,NA,Scene,Exp5,None
5202,5,276,0,1,1,588,NA,Scene,Exp5,None
5202,5,277,2,1,1,676,NA,Scene,Exp5,None
5202,5,278,0,0,1,794,NA,Scene,Exp5,None
5202,5,279,2,0,0,689,NA,Scene,Exp5,None
5202,5,280,0,0,0,357,NA,Scene,Exp5,None
5202,5,281,0,1,1,307,NA,Scene,Exp5,None
5202,5,282,1,0,1,707,NA,Scene,Exp5,None
5202,5,283,2,0,1,707,NA,Scene,Exp5,None
5202,5,284,2,1,1,779,NA,Scene,Exp5,None
5202,5,285,0,1,1,645,NA,Scene,Exp5,None
5202,5,286,1,1,0,529,NA,Scene,Exp5,None
5202,5,287,1,1,0,861,NA,Scene,Exp5,None
5202,5,288,1,0,1,936,NA,Scene,Exp5,None
5202,5,289,1,1,1,762,NA,Scene,Exp5,None
5202,5,291,1,0,1,960,NA,Scene,Exp5,None
5202,5,292,2,0,1,749,NA,Scene,Exp5,None
5202,5,293,2,1,1,782,NA,Scene,Exp5,None
5202,5,294,0,0,1,680,NA,Scene,Exp5,None
5202,5,295,0,1,0,766,NA,Scene,Exp5,None
5202,5,296,1,0,1,1018,NA,Scene,Exp5,None
5202,5,297,0,0,1,772,NA,Scene,Exp5,None
5202,5,298,2,0,1,792,NA,Scene,Exp5,None
5202,5,299,2,1,1,504,NA,Scene,Exp5,None
5202,5,300,0,1,1,792,NA,Scene,Exp5,None
5202,6,301,1,1,1,700,NA,Scene,Exp5,None
5202,6,302,2,1,1,774,NA,Scene,Exp5,None
5202,6,303,2,0,1,728,NA,Scene,Exp5,None
5202,6,304,1,0,1,732,NA,Scene,Exp5,None
5202,6,305,0,1,1,552,NA,Scene,Exp5,None
5202,6,306,2,0,1,624,NA,Scene,Exp5,None
5202,6,307,0,1,1,531,NA,Scene,Exp5,None
5202,6,308,0,0,1,615,NA,Scene,Exp5,None
5202,6,309,1,0,0,401,NA,Scene,Exp5,None
5202,6,310,0,0,1,575,NA,Scene,Exp5,None
5202,6,311,2,1,1,841,NA,Scene,Exp5,None
5202,6,312,1,1,0,471,NA,Scene,Exp5,None
5202,6,313,1,0,1,679,NA,Scene,Exp5,None
5202,6,314,2,1,0,581,NA,Scene,Exp5,None
5202,6,315,2,0,0,487,NA,Scene,Exp5,None
5202,6,316,0,1,1,299,NA,Scene,Exp5,None
5202,6,317,1,1,0,653,NA,Scene,Exp5,None
5202,6,318,0,0,1,704,NA,Scene,Exp5,None
5202,6,319,0,0,1,776,NA,Scene,Exp5,None
5202,6,320,2,1,1,722,NA,Scene,Exp5,None
5202,6,321,1,0,0,560,NA,Scene,Exp5,None
5202,6,322,1,1,0,798,NA,Scene,Exp5,None
5202,6,323,0,1,1,668,NA,Scene,Exp5,None
5202,6,324,2,0,1,796,NA,Scene,Exp5,None
5202,6,325,1,1,1,657,NA,Scene,Exp5,None
5202,6,326,2,1,0,700,NA,Scene,Exp5,None
5202,6,327,1,0,1,791,NA,Scene,Exp5,None
5202,6,328,2,0,0,647,NA,Scene,Exp5,None
5202,6,329,1,0,0,786,NA,Scene,Exp5,None
5202,6,330,2,1,0,698,NA,Scene,Exp5,None
5202,6,335,0,0,0,883,NA,Scene,Exp5,None
5202,6,336,0,1,1,713,NA,Scene,Exp5,None
5202,6,337,1,1,1,721,NA,Scene,Exp5,None
5202,6,338,2,0,1,655,NA,Scene,Exp5,None
5202,6,339,0,1,1,601,NA,Scene,Exp5,None
5202,6,340,1,0,0,719,NA,Scene,Exp5,None
5202,6,341,1,0,0,589,NA,Scene,Exp5,None
5202,6,342,0,0,0,741,NA,Scene,Exp5,None
5202,6,343,0,1,1,943,NA,Scene,Exp5,None
5202,6,344,2,0,1,802,NA,Scene,Exp5,None
5202,6,345,0,0,1,832,NA,Scene,Exp5,None
5202,6,346,1,1,1,584,NA,Scene,Exp5,None
5202,6,347,2,1,1,880,NA,Scene,Exp5,None
5202,6,348,2,1,1,694,NA,Scene,Exp5,None
5202,6,349,0,0,1,984,NA,Scene,Exp5,None
5202,6,350,1,1,1,946,NA,Scene,Exp5,None
5202,6,351,1,0,0,786,NA,Scene,Exp5,None
5202,6,354,0,0,1,707,NA,Scene,Exp5,None
5202,6,357,2,1,1,1067,NA,Scene,Exp5,None
5202,6,358,0,1,1,731,NA,Scene,Exp5,None
5202,6,359,0,1,0,808,NA,Scene,Exp5,None
5202,1,1,2,0,0,866,NA,Person,Exp5,None
5202,1,2,2,0,1,706,NA,Person,Exp5,None
5202,1,3,2,1,1,594,NA,Person,Exp5,None
5202,1,4,1,0,1,648,NA,Person,Exp5,None
5202,1,5,1,0,1,732,NA,Person,Exp5,None
5202,1,6,1,1,1,625,NA,Person,Exp5,None
5202,1,7,2,1,1,803,NA,Person,Exp5,None
5202,1,8,0,1,0,633,NA,Person,Exp5,None
5202,1,9,0,1,1,497,NA,Person,Exp5,None
5202,1,10,0,0,1,603,NA,Person,Exp5,None
5202,1,11,1,1,1,761,NA,Person,Exp5,None
5202,1,12,0,0,1,702,NA,Person,Exp5,None
5202,1,13,2,0,1,729,NA,Person,Exp5,None
5202,1,14,0,0,0,788,NA,Person,Exp5,None
5202,1,15,2,1,1,421,NA,Person,Exp5,None
5202,1,16,0,0,1,719,NA,Person,Exp5,None
5202,1,17,0,1,1,749,NA,Person,Exp5,None
5202,1,18,1,0,1,949,NA,Person,Exp5,None
5202,1,19,1,1,1,733,NA,Person,Exp5,None
5202,1,20,0,1,1,689,NA,Person,Exp5,None
5202,1,21,2,0,1,629,NA,Person,Exp5,None
5202,1,22,2,1,1,781,NA,Person,Exp5,None
5202,1,23,1,1,1,719,NA,Person,Exp5,None
5202,1,24,1,0,1,694,NA,Person,Exp5,None
5202,1,25,1,1,1,360,NA,Person,Exp5,None
5202,1,26,1,1,1,598,NA,Person,Exp5,None
5202,1,27,1,0,1,580,NA,Person,Exp5,None
5202,1,28,2,1,1,550,NA,Person,Exp5,None
5202,1,29,0,0,1,710,NA,Person,Exp5,None
5202,1,30,0,0,0,374,NA,Person,Exp5,None
5202,1,31,2,0,0,256,NA,Person,Exp5,None
5202,1,32,2,1,0,666,NA,Person,Exp5,None
5202,1,33,1,0,0,1066,NA,Person,Exp5,None
5202,1,35,0,1,1,923,NA,Person,Exp5,None
5202,1,36,0,1,1,513,NA,Person,Exp5,None
5202,1,37,1,0,1,553,NA,Person,Exp5,None
5202,1,38,1,1,1,785,NA,Person,Exp5,None
5202,1,39,2,0,0,961,NA,Person,Exp5,None
5202,1,40,1,1,1,591,NA,Person,Exp5,None
5202,1,41,0,1,1,799,NA,Person,Exp5,None
5202,1,42,2,0,1,533,NA,Person,Exp5,None
5202,1,43,0,1,1,482,NA,Person,Exp5,None
5202,1,44,2,1,0,600,NA,Person,Exp5,None
5202,1,45,1,0,0,286,NA,Person,Exp5,None
5202,1,46,0,0,0,202,NA,Person,Exp5,None
5202,1,47,2,1,1,232,NA,Person,Exp5,None
5202,1,48,0,0,1,632,NA,Person,Exp5,None
5202,1,49,0,1,1,624,NA,Person,Exp5,None
5202,1,50,2,1,0,552,NA,Person,Exp5,None
5202,1,51,1,0,1,936,NA,Person,Exp5,None
5202,1,52,0,0,0,730,NA,Person,Exp5,None
5202,1,53,0,1,1,359,NA,Person,Exp5,None
5202,1,54,2,0,1,661,NA,Person,Exp5,None
5202,1,55,2,1,1,663,NA,Person,Exp5,None
5202,1,56,1,0,1,625,NA,Person,Exp5,None
5202,1,57,0,0,1,809,NA,Person,Exp5,None
5202,1,58,1,1,1,773,NA,Person,Exp5,None
5202,1,59,1,1,0,649,NA,Person,Exp5,None
5202,1,60,2,0,0,653,NA,Person,Exp5,None
5202,2,61,0,0,1,943,NA,Person,Exp5,None
5202,2,62,0,1,1,575,NA,Person,Exp5,None
5202,2,63,1,0,1,921,NA,Person,Exp5,None
5202,2,64,1,0,0,799,NA,Person,Exp5,None
5202,2,65,0,0,0,701,NA,Person,Exp5,None
5202,2,66,2,1,1,815,NA,Person,Exp5,None
5202,2,67,2,0,1,810,NA,Person,Exp5,None
5202,2,68,2,1,0,726,NA,Person,Exp5,None
5202,2,69,1,1,1,642,NA,Person,Exp5,None
5202,2,70,0,1,1,584,NA,Person,Exp5,None
5202,2,71,1,1,1,800,NA,Person,Exp5,None
5202,2,72,2,0,1,654,NA,Person,Exp5,None
5202,2,73,2,1,1,984,NA,Person,Exp5,None
5202,2,74,1,0,0,616,NA,Person,Exp5,None
5202,2,76,2,0,0,587,NA,Person,Exp5,None
5202,2,77,1,1,1,339,NA,Person,Exp5,None
5202,2,78,1,0,1,797,NA,Person,Exp5,None
5202,2,79,1,1,0,859,NA,Person,Exp5,None
5202,2,80,0,0,0,245,NA,Person,Exp5,None
5202,2,83,0,1,1,753,NA,Person,Exp5,None
5202,2,84,0,1,1,560,NA,Person,Exp5,None
5202,2,85,1,1,1,686,NA,Person,Exp5,None
5202,2,86,2,0,1,826,NA,Person,Exp5,None
5202,2,87,1,1,0,818,NA,Person,Exp5,None
5202,2,88,2,1,1,940,NA,Person,Exp5,None
5202,2,89,0,0,1,806,NA,Person,Exp5,None
5202,2,90,0,0,1,898,NA,Person,Exp5,None
5202,2,91,0,1,1,612,NA,Person,Exp5,None
5202,2,92,1,0,0,608,NA,Person,Exp5,None
5202,2,93,1,0,0,293,NA,Person,Exp5,None
5202,2,95,2,1,1,591,NA,Person,Exp5,None
5202,2,96,0,1,1,447,NA,Person,Exp5,None
5202,2,97,0,1,1,395,NA,Person,Exp5,None
5202,2,98,2,1,0,513,NA,Person,Exp5,None
5202,2,100,0,1,0,851,NA,Person,Exp5,None
5202,2,101,0,0,0,607,NA,Person,Exp5,None
5202,2,103,1,0,0,683,NA,Person,Exp5,None
5202,2,104,1,0,1,1009,NA,Person,Exp5,None
5202,2,105,0,0,1,773,NA,Person,Exp5,None
5202,2,106,1,1,0,727,NA,Person,Exp5,None
5202,2,107,1,1,1,379,NA,Person,Exp5,None
5202,2,108,2,1,0,605,NA,Person,Exp5,None
5202,2,111,2,1,1,921,NA,Person,Exp5,None
5202,2,112,0,1,1,568,NA,Person,Exp5,None
5202,2,113,1,1,1,644,NA,Person,Exp5,None
5202,2,114,1,1,1,512,NA,Person,Exp5,None
5202,2,115,0,1,1,712,NA,Person,Exp5,None
5202,2,116,0,0,1,616,NA,Person,Exp5,None
5202,2,117,1,0,1,642,NA,Person,Exp5,None
5202,2,120,2,0,0,330,NA,Person,Exp5,None
5202,3,121,0,0,1,1031,NA,Person,Exp5,None
5202,3,122,0,0,1,615,NA,Person,Exp5,None
5202,3,123,2,0,0,593,NA,Person,Exp5,None
5202,3,125,0,1,1,537,NA,Person,Exp5,None
5202,3,126,2,1,0,443,NA,Person,Exp5,None
5202,3,127,0,1,1,289,NA,Person,Exp5,None
5202,3,128,1,1,1,430,NA,Person,Exp5,None
5202,3,129,1,1,1,430,NA,Person,Exp5,None
5202,3,130,2,1,1,566,NA,Person,Exp5,None
5202,3,131,1,0,0,442,NA,Person,Exp5,None
5202,3,132,2,0,1,320,NA,Person,Exp5,None
5202,3,133,2,0,0,326,NA,Person,Exp5,None
5202,3,135,1,0,1,878,NA,Person,Exp5,None
5202,3,136,1,1,1,644,NA,Person,Exp5,None
5202,3,137,0,0,0,552,NA,Person,Exp5,None
5202,3,138,2,1,0,289,NA,Person,Exp5,None
5202,3,140,1,0,1,973,NA,Person,Exp5,None
5202,3,141,2,0,0,985,NA,Person,Exp5,None
5202,3,142,1,1,1,753,NA,Person,Exp5,None
5202,3,143,2,1,0,585,NA,Person,Exp5,None
5202,3,145,2,1,1,907,NA,Person,Exp5,None
5202,3,146,1,0,0,691,NA,Person,Exp5,None
5202,3,147,0,0,0,536,NA,Person,Exp5,None
5202,3,148,0,1,1,930,NA,Person,Exp5,None
5202,3,149,0,1,1,486,NA,Person,Exp5,None
5202,3,150,1,1,0,513,NA,Person,Exp5,None
5202,3,151,1,1,1,865,NA,Person,Exp5,None
5202,3,152,2,1,1,721,NA,Person,Exp5,None
5202,3,153,2,0,1,583,NA,Person,Exp5,None
5202,3,154,0,0,0,375,NA,Person,Exp5,None
5202,3,156,1,0,1,930,NA,Person,Exp5,None
5202,3,157,1,0,0,438,NA,Person,Exp5,None
5202,3,158,1,0,0,444,NA,Person,Exp5,None
5202,3,159,0,1,0,504,NA,Person,Exp5,None
5202,3,161,0,0,1,824,NA,Person,Exp5,None
5202,3,162,1,1,0,704,NA,Person,Exp5,None
5202,3,163,0,1,1,608,NA,Person,Exp5,None
5202,3,164,2,1,0,812,NA,Person,Exp5,None
5202,3,165,1,1,1,681,NA,Person,Exp5,None
5202,3,166,2,0,0,871,NA,Person,Exp5,None
5202,3,167,2,0,0,895,NA,Person,Exp5,None
5202,3,168,0,0,1,873,NA,Person,Exp5,None
5202,3,169,1,0,1,817,NA,Person,Exp5,None
5202,3,170,0,1,1,643,NA,Person,Exp5,None
5202,3,171,0,1,1,641,NA,Person,Exp5,None
5202,3,172,0,0,1,687,NA,Person,Exp5,None
5202,3,173,1,1,1,427,NA,Person,Exp5,None
5202,3,174,0,0,1,620,NA,Person,Exp5,None
5202,3,175,2,1,1,262,NA,Person,Exp5,None
5202,3,177,2,0,0,776,NA,Person,Exp5,None
5202,3,178,1,0,1,754,NA,Person,Exp5,None
5202,3,179,2,0,1,752,NA,Person,Exp5,None
5202,3,180,1,1,1,792,NA,Person,Exp5,None
5202,4,181,0,0,1,727,NA,Person,Exp5,None
5202,4,182,0,0,1,1003,NA,Person,Exp5,None
5202,4,183,0,1,1,745,NA,Person,Exp5,None
5202,4,184,1,0,1,673,NA,Person,Exp5,None
5202,4,185,1,1,1,633,NA,Person,Exp5,None
5202,4,186,2,1,0,641,NA,Person,Exp5,None
5202,4,187,2,0,0,215,NA,Person,Exp5,None
5202,4,188,0,1,1,449,NA,Person,Exp5,None
5202,4,189,1,1,1,462,NA,Person,Exp5,None
5202,4,190,2,1,1,544,NA,Person,Exp5,None
5202,4,191,2,0,0,490,NA,Person,Exp5,None
5202,4,193,0,0,0,338,NA,Person,Exp5,None
5202,4,194,2,0,0,891,NA,Person,Exp5,None
5202,4,195,1,0,1,991,NA,Person,Exp5,None
5202,4,196,1,1,1,711,NA,Person,Exp5,None
5202,4,197,0,1,1,567,NA,Person,Exp5,None
5202,4,198,1,0,0,667,NA,Person,Exp5,None
5202,4,199,2,1,0,708,NA,Person,Exp5,None
5202,4,200,0,0,0,620,NA,Person,Exp5,None
5202,4,201,2,0,0,214,NA,Person,Exp5,None
5202,4,202,2,1,1,680,NA,Person,Exp5,None
5202,4,203,0,1,1,958,NA,Person,Exp5,None
5202,4,204,1,1,1,932,NA,Person,Exp5,None
5202,4,207,0,1,1,656,NA,Person,Exp5,None
5202,4,212,1,1,0,831,NA,Person,Exp5,None
5202,4,213,2,1,1,383,NA,Person,Exp5,None
5202,4,214,2,0,1,425,NA,Person,Exp5,None
5202,4,215,0,1,1,305,NA,Person,Exp5,None
5202,4,216,1,0,1,265,NA,Person,Exp5,None
5202,4,217,0,1,1,257,NA,Person,Exp5,None
5202,4,219,1,0,0,290,NA,Person,Exp5,None
5202,4,220,0,1,1,310,NA,Person,Exp5,None
5202,4,221,2,1,0,710,NA,Person,Exp5,None
5202,4,222,1,1,1,662,NA,Person,Exp5,None
5202,4,223,1,1,0,888,NA,Person,Exp5,None
5202,4,224,2,0,0,764,NA,Person,Exp5,None
5202,4,226,0,0,1,592,NA,Person,Exp5,None
5202,4,227,0,0,1,600,NA,Person,Exp5,None
5202,4,228,1,0,0,575,NA,Person,Exp5,None
5202,4,229,1,0,1,233,NA,Person,Exp5,None
5202,4,230,1,1,0,505,NA,Person,Exp5,None
5202,4,231,1,1,1,561,NA,Person,Exp5,None
5202,4,232,0,1,1,751,NA,Person,Exp5,None
5202,4,233,1,0,1,631,NA,Person,Exp5,None
5202,4,234,2,1,0,735,NA,Person,Exp5,None
5202,4,235,0,0,0,233,NA,Person,Exp5,None
5202,4,238,2,0,0,1034,NA,Person,Exp5,None
5202,4,239,2,1,0,840,NA,Person,Exp5,None
5202,4,240,2,0,1,934,NA,Person,Exp5,None
5202,5,241,0,1,1,799,NA,Person,Exp5,None
5202,5,242,2,1,1,709,NA,Person,Exp5,None
5202,5,243,2,1,1,638,NA,Person,Exp5,None
5202,5,244,1,1,0,532,NA,Person,Exp5,None
5202,5,245,1,1,1,464,NA,Person,Exp5,None
5202,5,246,0,0,1,864,NA,Person,Exp5,None
5202,5,247,0,1,1,626,NA,Person,Exp5,None
5202,5,248,1,0,1,770,NA,Person,Exp5,None
5202,5,249,1,0,0,908,NA,Person,Exp5,None
5202,5,250,2,0,1,532,NA,Person,Exp5,None
5202,5,251,2,0,0,776,NA,Person,Exp5,None
5202,5,253,0,0,1,889,NA,Person,Exp5,None
5202,5,254,2,0,0,613,NA,Person,Exp5,None
5202,5,256,1,0,1,257,NA,Person,Exp5,None
5202,5,257,1,0,1,899,NA,Person,Exp5,None
5202,5,258,0,0,1,653,NA,Person,Exp5,None
5202,5,259,2,0,1,593,NA,Person,Exp5,None
5202,5,260,0,1,1,633,NA,Person,Exp5,None
5202,5,261,1,1,0,207,NA,Person,Exp5,None
5202,5,262,0,1,1,252,NA,Person,Exp5,None
5202,5,263,2,1,0,552,NA,Person,Exp5,None
5202,5,266,1,0,1,890,NA,Person,Exp5,None
5202,5,267,2,1,0,718,NA,Person,Exp5,None
5202,5,268,1,0,0,620,NA,Person,Exp5,None
5202,5,269,2,0,1,222,NA,Person,Exp5,None
5202,5,270,0,1,0,432,NA,Person,Exp5,None
5202,5,271,2,0,0,312,NA,Person,Exp5,None
5202,5,272,0,0,0,616,NA,Person,Exp5,None
5202,5,274,2,1,1,939,NA,Person,Exp5,None
5202,5,275,0,1,1,685,NA,Person,Exp5,None
5202,5,276,0,0,1,665,NA,Person,Exp5,None
5202,5,277,1,1,1,865,NA,Person,Exp5,None
5202,5,278,2,0,0,577,NA,Person,Exp5,None
5202,5,279,1,0,1,627,NA,Person,Exp5,None
5202,5,280,0,0,0,315,NA,Person,Exp5,None
5202,5,282,1,0,0,906,NA,Person,Exp5,None
5202,5,283,0,1,1,738,NA,Person,Exp5,None
5202,5,284,2,1,0,748,NA,Person,Exp5,None
5202,5,285,0,0,0,508,NA,Person,Exp5,None
5202,5,288,1,1,1,1010,NA,Person,Exp5,None
5202,5,289,1,1,1,1037,NA,Person,Exp5,None
5202,5,290,1,0,1,604,NA,Person,Exp5,None
5202,5,291,0,0,1,688,NA,Person,Exp5,None
5202,5,292,1,0,1,940,NA,Person,Exp5,None
5202,5,293,2,1,1,662,NA,Person,Exp5,None
5202,5,294,1,1,0,720,NA,Person,Exp5,None
5202,5,295,2,0,0,558,NA,Person,Exp5,None
5202,5,296,2,1,0,724,NA,Person,Exp5,None
5202,5,297,0,1,1,608,NA,Person,Exp5,None
5202,5,298,0,1,1,484,NA,Person,Exp5,None
5202,5,299,2,0,1,609,NA,Person,Exp5,None
5202,5,300,0,0,1,781,NA,Person,Exp5,None
5202,6,301,1,1,1,821,NA,Person,Exp5,None
5202,6,302,2,0,1,703,NA,Person,Exp5,None
5202,6,303,0,1,1,656,NA,Person,Exp5,None
5202,6,304,0,0,1,642,NA,Person,Exp5,None
5202,6,305,2,1,0,496,NA,Person,Exp5,None
5202,6,306,1,0,0,218,NA,Person,Exp5,None
5202,6,308,2,0,1,884,NA,Person,Exp5,None
5202,6,309,2,1,1,648,NA,Person,Exp5,None
5202,6,310,0,1,1,548,NA,Person,Exp5,None
5202,6,311,0,0,1,596,NA,Person,Exp5,None
5202,6,312,1,0,1,578,NA,Person,Exp5,None
5202,6,313,1,0,0,253,NA,Person,Exp5,None
5202,6,314,1,1,1,745,NA,Person,Exp5,None
5202,6,315,2,1,1,761,NA,Person,Exp5,None
5202,6,316,0,0,1,559,NA,Person,Exp5,None
5202,6,317,2,0,1,485,NA,Person,Exp5,None
5202,6,318,1,1,1,321,NA,Person,Exp5,None
5202,6,320,2,1,1,211,NA,Person,Exp5,None
5202,6,321,2,0,1,607,NA,Person,Exp5,None
5202,6,322,0,1,1,547,NA,Person,Exp5,None
5202,6,323,0,1,0,387,NA,Person,Exp5,None
5202,6,325,2,0,0,274,NA,Person,Exp5,None
5202,6,329,2,0,0,994,NA,Person,Exp5,None
5202,6,330,0,1,1,656,NA,Person,Exp5,None
5202,6,331,2,1,0,602,NA,Person,Exp5,None
5202,6,332,1,0,0,248,NA,Person,Exp5,None
5202,6,334,1,0,1,770,NA,Person,Exp5,None
5202,6,335,0,0,1,822,NA,Person,Exp5,None
5202,6,336,2,1,0,592,NA,Person,Exp5,None
5202,6,337,1,1,0,792,NA,Person,Exp5,None
5202,6,338,2,1,1,928,NA,Person,Exp5,None
5202,6,339,0,1,1,588,NA,Person,Exp5,None
5202,6,340,2,0,1,796,NA,Person,Exp5,None
5202,6,341,2,0,0,962,NA,Person,Exp5,None
5202,6,342,1,0,0,265,NA,Person,Exp5,None
5202,6,344,0,1,0,361,NA,Person,Exp5,None
5202,6,346,0,0,0,855,NA,Person,Exp5,None
5202,6,348,0,0,1,1073,NA,Person,Exp5,None
5202,6,349,0,0,1,679,NA,Person,Exp5,None
5202,6,350,2,1,1,605,NA,Person,Exp5,None
5202,6,351,1,0,0,569,NA,Person,Exp5,None
5202,6,353,0,1,0,396,NA,Person,Exp5,None
5202,6,356,2,0,1,792,NA,Person,Exp5,None
5202,6,357,1,1,1,632,NA,Person,Exp5,None
5202,6,358,1,1,1,688,NA,Person,Exp5,None
5202,6,359,1,0,0,580,NA,Person,Exp5,None
5202,1,1,2,0,1,946,NA,Morality,Exp5,None
5202,1,2,1,1,1,834,NA,Morality,Exp5,None
5202,1,3,2,0,0,752,NA,Morality,Exp5,None
5202,1,4,2,1,1,648,NA,Morality,Exp5,None
5202,1,5,1,0,1,597,NA,Morality,Exp5,None
5202,1,6,0,1,1,971,NA,Morality,Exp5,None
5202,1,7,1,0,1,607,NA,Morality,Exp5,None
5202,1,8,2,1,1,747,NA,Morality,Exp5,None
5202,1,9,0,1,1,731,NA,Morality,Exp5,None
5202,1,10,0,0,1,543,NA,Morality,Exp5,None
5202,1,11,0,0,0,679,NA,Morality,Exp5,None
5202,1,13,0,0,1,643,NA,Morality,Exp5,None
5202,1,14,0,0,1,656,NA,Morality,Exp5,None
5202,1,15,1,0,1,682,NA,Morality,Exp5,None
5202,1,16,0,1,1,816,NA,Morality,Exp5,None
5202,1,17,0,1,1,658,NA,Morality,Exp5,None
5202,1,18,1,0,1,1060,NA,Morality,Exp5,None
5202,1,19,1,1,1,966,NA,Morality,Exp5,None
5202,1,20,2,1,0,626,NA,Morality,Exp5,None
5202,1,22,2,0,1,706,NA,Morality,Exp5,None
5202,1,23,2,0,1,739,NA,Morality,Exp5,None
5202,1,24,1,1,1,661,NA,Morality,Exp5,None
5202,1,25,1,1,0,767,NA,Morality,Exp5,None
5202,1,26,2,1,1,659,NA,Morality,Exp5,None
5202,1,27,2,0,1,949,NA,Morality,Exp5,None
5202,1,28,1,0,1,765,NA,Morality,Exp5,None
5202,1,29,0,0,0,713,NA,Morality,Exp5,None
5202,1,31,1,0,1,906,NA,Morality,Exp5,None
5202,1,32,0,0,1,914,NA,Morality,Exp5,None
5202,1,33,2,0,1,896,NA,Morality,Exp5,None
5202,1,34,0,1,1,642,NA,Morality,Exp5,None
5202,1,35,1,1,0,624,NA,Morality,Exp5,None
5202,1,36,0,1,1,336,NA,Morality,Exp5,None
5202,1,37,0,0,0,722,NA,Morality,Exp5,None
5202,1,39,1,1,0,568,NA,Morality,Exp5,None
5202,1,40,0,1,1,260,NA,Morality,Exp5,None
5202,1,41,1,0,0,295,NA,Morality,Exp5,None
5202,1,42,0,0,1,441,NA,Morality,Exp5,None
5202,1,43,1,1,1,295,NA,Morality,Exp5,None
5202,1,44,2,0,1,217,NA,Morality,Exp5,None
5202,1,47,1,0,0,639,NA,Morality,Exp5,None
5202,1,48,0,1,1,717,NA,Morality,Exp5,None
5202,1,49,1,1,0,579,NA,Morality,Exp5,None
5202,1,51,0,0,1,714,NA,Morality,Exp5,None
5202,1,52,0,0,1,761,NA,Morality,Exp5,None
5202,1,53,0,1,1,463,NA,Morality,Exp5,None
5202,1,54,0,1,1,409,NA,Morality,Exp5,None
5202,1,55,1,0,0,477,NA,Morality,Exp5,None
5202,1,57,1,0,0,545,NA,Morality,Exp5,None
5202,1,59,2,1,0,665,NA,Morality,Exp5,None
