Subject,BlockNo,TrialNo,Valence,Matchness,ACC,RT,Identity,ExpNo,Self_ref
3010,1,1,1,1,1,822,Other,Exp3a,Explicit
3010,1,2,2,1,0,660,Other,Exp3a,Explicit
3010,1,3,2,1,0,608,Other,Exp3a,Explicit
3010,1,4,1,1,1,747,Self,Exp3a,Explicit
3010,1,5,1,0,1,657,Self,Exp3a,Explicit
3010,1,6,2,0,1,631,Other,Exp3a,Explicit
3010,1,7,0,0,1,678,Self,Exp3a,Explicit
3010,1,8,0,0,0,561,Other,Exp3a,Explicit
3010,1,9,0,0,1,903,Self,Exp3a,Explicit
3010,1,10,0,1,1,507,Other,Exp3a,Explicit
3010,1,11,2,1,1,750,Self,Exp3a,Explicit
3010,1,12,1,1,1,700,Self,Exp3a,Explicit
3010,1,13,0,1,1,664,Other,Exp3a,Explicit
3010,1,14,0,1,0,648,Self,Exp3a,Explicit
3010,1,15,0,1,1,553,Self,Exp3a,Explicit
3010,1,16,0,0,0,701,Other,Exp3a,Explicit
3010,1,17,1,1,1,759,Other,Exp3a,Explicit
3010,1,18,1,0,1,680,Self,Exp3a,Explicit
3010,1,19,1,1,1,577,Self,Exp3a,Explicit
3010,1,20,0,1,1,505,Other,Exp3a,Explicit
3010,1,21,1,1,1,741,Other,Exp3a,Explicit
3010,1,22,0,1,1,851,Other,Exp3a,Explicit
3010,1,23,2,1,1,865,Other,Exp3a,Explicit
3010,1,24,1,0,1,991,Self,Exp3a,Explicit
3010,1,25,2,1,1,1067,Other,Exp3a,Explicit
3010,1,26,0,0,1,580,Other,Exp3a,Explicit
3010,1,27,0,0,0,794,Self,Exp3a,Explicit
3010,1,28,0,1,1,525,Other,Exp3a,Explicit
3010,1,29,2,0,1,993,Other,Exp3a,Explicit
3010,1,30,0,1,1,676,Self,Exp3a,Explicit
3010,1,31,2,0,1,621,Self,Exp3a,Explicit
3010,1,32,2,0,1,742,Self,Exp3a,Explicit
3010,1,33,2,0,1,815,Other,Exp3a,Explicit
3010,1,34,1,0,1,669,Self,Exp3a,Explicit
3010,1,35,0,1,1,656,Self,Exp3a,Explicit
3010,1,36,1,0,1,663,Other,Exp3a,Explicit
3010,1,37,0,0,1,655,Other,Exp3a,Explicit
3010,1,38,2,1,1,680,Self,Exp3a,Explicit
3010,1,39,0,0,1,764,Other,Exp3a,Explicit
3010,1,40,1,0,1,738,Other,Exp3a,Explicit
3010,1,41,1,0,1,829,Self,Exp3a,Explicit
3010,1,42,2,1,1,761,Self,Exp3a,Explicit
3010,1,43,0,0,1,746,Self,Exp3a,Explicit
3010,1,44,2,0,1,898,Other,Exp3a,Explicit
3010,1,45,2,1,1,1099,Other,Exp3a,Explicit
3010,1,46,0,1,1,900,Self,Exp3a,Explicit
3010,1,47,1,1,1,645,Other,Exp3a,Explicit
3010,1,48,1,0,1,614,Other,Exp3a,Explicit
3010,1,49,1,0,1,958,Other,Exp3a,Explicit
3010,1,50,1,1,0,934,Self,Exp3a,Explicit
3010,1,51,1,1,1,546,Self,Exp3a,Explicit
3010,1,52,1,1,1,693,Other,Exp3a,Explicit
3010,1,53,2,0,1,713,Self,Exp3a,Explicit
3010,1,54,2,0,0,658,Self,Exp3a,Explicit
3010,1,55,2,1,1,586,Self,Exp3a,Explicit
3010,1,56,2,0,1,675,Self,Exp3a,Explicit
3010,1,57,0,0,0,1084,Self,Exp3a,Explicit
3010,1,58,2,1,1,855,Self,Exp3a,Explicit
3010,1,59,2,0,1,923,Other,Exp3a,Explicit
3010,1,60,1,0,1,649,Other,Exp3a,Explicit
3010,1,61,2,0,1,741,Other,Exp3a,Explicit
3010,1,62,2,0,0,547,Self,Exp3a,Explicit
3010,1,63,0,1,1,604,Other,Exp3a,Explicit
3010,1,64,0,1,1,892,Self,Exp3a,Explicit
3010,1,65,2,1,1,909,Other,Exp3a,Explicit
3010,1,66,1,0,1,710,Self,Exp3a,Explicit
3010,1,67,1,0,1,762,Other,Exp3a,Explicit
3010,1,68,2,0,1,661,Self,Exp3a,Explicit
3010,1,69,1,0,0,694,Self,Exp3a,Explicit
3010,1,71,0,0,1,1050,Self,Exp3a,Explicit
3010,1,72,0,1,1,744,Other,Exp3a,Explicit
3010,1,73,1,0,1,657,Self,Exp3a,Explicit
3010,1,74,1,0,1,815,Self,Exp3a,Explicit
3010,1,75,2,1,1,653,Other,Exp3a,Explicit
3010,1,76,0,1,1,606,Self,Exp3a,Explicit
3010,1,77,0,0,1,711,Other,Exp3a,Explicit
3010,1,78,2,1,1,693,Other,Exp3a,Explicit
3010,1,79,0,0,1,739,Self,Exp3a,Explicit
3010,1,80,2,1,1,724,Self,Exp3a,Explicit
3010,1,81,0,0,1,633,Self,Exp3a,Explicit
3010,1,82,0,0,1,748,Other,Exp3a,Explicit
3010,1,83,1,1,0,802,Self,Exp3a,Explicit
3010,1,84,1,1,1,457,Self,Exp3a,Explicit
3010,1,85,0,1,0,721,Self,Exp3a,Explicit
3010,1,86,2,0,1,767,Other,Exp3a,Explicit
3010,1,87,1,0,1,619,Other,Exp3a,Explicit
3010,1,88,1,1,0,654,Self,Exp3a,Explicit
3010,1,89,0,1,1,668,Other,Exp3a,Explicit
3010,1,90,0,0,1,749,Self,Exp3a,Explicit
3010,1,91,2,1,1,411,Other,Exp3a,Explicit
3010,1,92,2,0,1,732,Self,Exp3a,Explicit
3010,1,94,1,0,1,883,Other,Exp3a,Explicit
3010,1,95,1,1,1,673,Other,Exp3a,Explicit
3010,1,96,1,1,1,895,Self,Exp3a,Explicit
3010,1,97,0,1,0,800,Self,Exp3a,Explicit
3010,1,98,2,1,1,929,Other,Exp3a,Explicit
3010,1,99,0,0,1,996,Other,Exp3a,Explicit
3010,1,100,1,0,1,635,Other,Exp3a,Explicit
3010,1,101,0,1,1,587,Other,Exp3a,Explicit
3010,1,102,1,0,1,815,Self,Exp3a,Explicit
3010,1,103,1,0,1,698,Other,Exp3a,Explicit
3010,1,104,2,0,1,883,Other,Exp3a,Explicit
3010,1,105,1,1,1,817,Self,Exp3a,Explicit
3010,1,106,1,1,1,575,Other,Exp3a,Explicit
3010,1,107,0,1,1,707,Self,Exp3a,Explicit
3010,1,108,0,1,1,718,Other,Exp3a,Explicit
3010,1,109,1,1,1,801,Other,Exp3a,Explicit
3010,1,110,2,1,1,850,Self,Exp3a,Explicit
3010,1,111,2,1,1,934,Self,Exp3a,Explicit
3010,1,112,0,0,1,638,Other,Exp3a,Explicit
3010,1,113,2,0,1,903,Self,Exp3a,Explicit
3010,1,114,1,1,1,519,Other,Exp3a,Explicit
3010,1,115,2,0,1,733,Other,Exp3a,Explicit
3010,1,116,1,1,1,686,Other,Exp3a,Explicit
3010,1,117,0,0,1,713,Other,Exp3a,Explicit
3010,1,118,2,0,1,757,Self,Exp3a,Explicit
3010,1,119,0,0,1,848,Self,Exp3a,Explicit
3010,1,120,2,1,1,913,Self,Exp3a,Explicit
3010,2,1,2,1,1,917,Self,Exp3a,Explicit
3010,2,2,1,1,1,595,Other,Exp3a,Explicit
3010,2,3,1,0,1,655,Other,Exp3a,Explicit
3010,2,4,1,0,1,805,Self,Exp3a,Explicit
3010,2,5,0,1,1,678,Other,Exp3a,Explicit
3010,2,6,1,1,1,918,Self,Exp3a,Explicit
3010,2,8,0,0,1,941,Self,Exp3a,Explicit
3010,2,9,0,0,1,897,Other,Exp3a,Explicit
3010,2,10,1,0,1,735,Self,Exp3a,Explicit
3010,2,11,1,1,1,805,Self,Exp3a,Explicit
3010,2,12,2,1,1,931,Self,Exp3a,Explicit
3010,2,13,1,0,1,820,Self,Exp3a,Explicit
3010,2,14,1,1,1,762,Self,Exp3a,Explicit
3010,2,15,2,1,1,613,Other,Exp3a,Explicit
3010,2,16,1,0,1,830,Other,Exp3a,Explicit
3010,2,17,0,0,1,842,Self,Exp3a,Explicit
3010,2,19,1,0,1,465,Other,Exp3a,Explicit
3010,2,20,0,1,0,818,Other,Exp3a,Explicit
3010,2,21,0,0,0,554,Other,Exp3a,Explicit
3010,2,25,2,1,1,575,Other,Exp3a,Explicit
3010,2,26,1,0,1,704,Other,Exp3a,Explicit
3010,2,27,1,1,1,694,Other,Exp3a,Explicit
3010,2,30,0,1,0,705,Self,Exp3a,Explicit
3010,2,31,0,1,1,756,Other,Exp3a,Explicit
3010,2,32,1,1,1,650,Other,Exp3a,Explicit
3010,2,33,2,1,1,886,Other,Exp3a,Explicit
3010,2,34,1,1,0,722,Other,Exp3a,Explicit
3010,2,35,2,1,0,626,Self,Exp3a,Explicit
3010,2,36,0,0,0,726,Self,Exp3a,Explicit
3010,2,37,2,0,0,865,Self,Exp3a,Explicit
3010,2,38,0,0,1,757,Self,Exp3a,Explicit
3010,2,39,0,1,1,739,Self,Exp3a,Explicit
3010,2,40,2,0,1,806,Other,Exp3a,Explicit
3010,2,41,0,1,1,615,Self,Exp3a,Explicit
3010,2,42,2,0,1,698,Self,Exp3a,Explicit
3010,2,43,2,0,1,784,Self,Exp3a,Explicit
3010,2,44,0,1,1,564,Other,Exp3a,Explicit
3010,2,45,2,0,0,917,Other,Exp3a,Explicit
3010,2,46,2,1,1,552,Self,Exp3a,Explicit
3010,2,47,1,1,1,745,Self,Exp3a,Explicit
3010,2,48,2,1,1,799,Self,Exp3a,Explicit
3010,2,49,1,0,1,576,Other,Exp3a,Explicit
3010,2,50,1,0,1,651,Self,Exp3a,Explicit
3010,2,51,2,0,0,537,Self,Exp3a,Explicit
3010,2,52,0,0,1,669,Self,Exp3a,Explicit
3010,2,53,1,1,1,694,Other,Exp3a,Explicit
3010,2,54,0,1,1,646,Other,Exp3a,Explicit
3010,2,55,0,0,1,636,Other,Exp3a,Explicit
3010,2,56,0,1,1,629,Self,Exp3a,Explicit
3010,2,57,1,1,0,819,Self,Exp3a,Explicit
3010,2,58,0,0,1,774,Other,Exp3a,Explicit
3010,2,59,0,0,1,722,Other,Exp3a,Explicit
3010,2,60,1,0,1,896,Self,Exp3a,Explicit
3010,2,61,2,0,1,649,Self,Exp3a,Explicit
3010,2,62,0,1,1,623,Self,Exp3a,Explicit
3010,2,63,1,0,1,805,Self,Exp3a,Explicit
3010,2,64,2,0,1,696,Other,Exp3a,Explicit
3010,2,65,1,0,1,622,Self,Exp3a,Explicit
3010,2,66,2,1,1,655,Self,Exp3a,Explicit
3010,2,67,2,0,1,651,Self,Exp3a,Explicit
3010,2,68,1,1,0,702,Other,Exp3a,Explicit
3010,2,69,0,1,1,644,Other,Exp3a,Explicit
3010,2,70,0,1,1,496,Other,Exp3a,Explicit
3010,2,71,2,1,1,712,Other,Exp3a,Explicit
3010,2,72,2,1,1,775,Self,Exp3a,Explicit
3010,2,73,0,0,1,821,Self,Exp3a,Explicit
3010,2,74,2,0,1,968,Other,Exp3a,Explicit
3010,2,75,1,0,1,860,Self,Exp3a,Explicit
3010,2,76,1,0,1,655,Self,Exp3a,Explicit
3010,2,77,2,0,1,715,Self,Exp3a,Explicit
3010,2,78,2,0,1,729,Self,Exp3a,Explicit
3010,2,79,2,1,1,631,Other,Exp3a,Explicit
3010,2,80,0,0,1,701,Self,Exp3a,Explicit
3010,2,81,2,1,1,782,Self,Exp3a,Explicit
3010,2,82,1,1,1,841,Self,Exp3a,Explicit
3010,2,83,1,0,1,653,Self,Exp3a,Explicit
3010,2,84,1,1,0,632,Self,Exp3a,Explicit
3010,2,85,1,0,1,745,Other,Exp3a,Explicit
3010,2,86,0,0,1,735,Other,Exp3a,Explicit
3010,2,87,2,1,1,683,Other,Exp3a,Explicit
3010,2,88,0,1,0,725,Self,Exp3a,Explicit
3010,2,89,1,1,1,688,Other,Exp3a,Explicit
3010,2,90,2,0,1,836,Other,Exp3a,Explicit
3010,2,91,1,0,1,749,Other,Exp3a,Explicit
3010,2,92,1,0,1,771,Other,Exp3a,Explicit
3010,2,93,0,0,1,638,Other,Exp3a,Explicit
3010,2,94,1,0,1,783,Other,Exp3a,Explicit
3010,2,95,0,1,1,755,Other,Exp3a,Explicit
3010,2,96,2,1,1,774,Self,Exp3a,Explicit
3010,2,97,0,1,1,818,Self,Exp3a,Explicit
3010,2,98,0,1,1,698,Other,Exp3a,Explicit
3010,2,99,1,1,1,662,Other,Exp3a,Explicit
3010,2,100,1,1,0,833,Self,Exp3a,Explicit
3010,2,101,1,1,1,471,Self,Exp3a,Explicit
3010,2,102,2,1,1,853,Self,Exp3a,Explicit
3010,2,103,2,0,1,750,Other,Exp3a,Explicit
3010,2,104,0,0,1,692,Other,Exp3a,Explicit
3010,2,105,0,0,1,720,Self,Exp3a,Explicit
3010,2,106,1,1,1,542,Other,Exp3a,Explicit
3010,2,107,2,1,1,1076,Other,Exp3a,Explicit
3010,2,108,0,0,1,610,Other,Exp3a,Explicit
3010,2,109,2,0,1,787,Self,Exp3a,Explicit
3010,2,110,1,1,1,734,Self,Exp3a,Explicit
3010,2,111,0,0,1,629,Other,Exp3a,Explicit
3010,2,113,0,1,1,702,Self,Exp3a,Explicit
3010,2,114,2,1,1,692,Other,Exp3a,Explicit
3010,2,115,0,0,1,939,Self,Exp3a,Explicit
3010,2,116,1,1,1,630,Other,Exp3a,Explicit
3010,2,117,0,1,1,775,Self,Exp3a,Explicit
3010,2,118,2,0,1,866,Other,Exp3a,Explicit
3010,2,119,0,1,1,774,Other,Exp3a,Explicit
3010,2,120,0,0,1,1091,Self,Exp3a,Explicit
3010,3,2,2,1,1,722,Self,Exp3a,Explicit
3010,3,3,2,0,1,560,Self,Exp3a,Explicit
3010,3,4,0,0,1,745,Self,Exp3a,Explicit
3010,3,5,1,1,1,567,Other,Exp3a,Explicit
3010,3,6,0,1,1,530,Self,Exp3a,Explicit
3010,3,7,0,0,1,555,Self,Exp3a,Explicit
3010,3,8,1,1,0,673,Self,Exp3a,Explicit
3010,3,9,0,1,1,597,Self,Exp3a,Explicit
3010,3,10,0,1,0,651,Self,Exp3a,Explicit
3010,3,11,1,0,1,956,Self,Exp3a,Explicit
3010,3,12,1,1,1,551,Other,Exp3a,Explicit
3010,3,13,2,1,1,645,Self,Exp3a,Explicit
3010,3,14,1,1,1,667,Other,Exp3a,Explicit
3010,3,15,2,0,1,706,Other,Exp3a,Explicit
3010,3,16,0,1,1,512,Other,Exp3a,Explicit
3010,3,17,0,0,1,654,Other,Exp3a,Explicit
3010,3,18,2,1,1,817,Other,Exp3a,Explicit
3010,3,19,2,0,1,762,Self,Exp3a,Explicit
3010,3,20,0,0,1,816,Self,Exp3a,Explicit
3010,3,21,0,1,1,564,Self,Exp3a,Explicit
3010,3,22,1,0,1,711,Self,Exp3a,Explicit
3010,3,23,2,1,1,648,Other,Exp3a,Explicit
3010,3,24,0,1,0,625,Other,Exp3a,Explicit
3010,3,25,0,0,1,646,Self,Exp3a,Explicit
3010,3,26,1,0,1,1031,Other,Exp3a,Explicit
3010,3,27,1,1,0,658,Other,Exp3a,Explicit
3010,3,28,0,1,1,771,Self,Exp3a,Explicit
3010,3,29,0,0,1,625,Self,Exp3a,Explicit
3010,3,30,1,0,0,698,Self,Exp3a,Explicit
3010,3,31,2,0,1,752,Other,Exp3a,Explicit
3010,3,32,1,0,1,708,Other,Exp3a,Explicit
3010,3,33,1,0,1,682,Other,Exp3a,Explicit
3010,3,34,2,1,1,1024,Other,Exp3a,Explicit
3010,3,35,1,0,1,889,Other,Exp3a,Explicit
3010,3,36,1,1,1,567,Other,Exp3a,Explicit
3010,3,37,0,1,1,936,Other,Exp3a,Explicit
3010,3,38,2,0,1,641,Other,Exp3a,Explicit
3010,3,39,0,1,1,593,Other,Exp3a,Explicit
3010,3,40,2,0,1,834,Self,Exp3a,Explicit
3010,3,41,2,1,1,728,Self,Exp3a,Explicit
3010,3,42,2,0,1,657,Self,Exp3a,Explicit
3010,3,43,1,1,1,698,Self,Exp3a,Explicit
3010,3,44,0,0,0,531,Other,Exp3a,Explicit
3010,3,45,1,0,1,633,Self,Exp3a,Explicit
3010,3,47,2,0,1,888,Self,Exp3a,Explicit
3010,3,48,2,0,0,744,Other,Exp3a,Explicit
3010,3,49,2,0,1,660,Other,Exp3a,Explicit
3010,3,50,0,0,1,776,Other,Exp3a,Explicit
3010,3,51,1,0,1,1056,Self,Exp3a,Explicit
3010,3,52,0,1,1,561,Other,Exp3a,Explicit
3010,3,53,1,1,1,989,Self,Exp3a,Explicit
3010,3,54,2,1,0,859,Other,Exp3a,Explicit
3010,3,55,0,0,1,745,Other,Exp3a,Explicit
3010,3,56,0,0,1,663,Other,Exp3a,Explicit
3010,3,57,2,1,1,773,Self,Exp3a,Explicit
3010,3,58,2,1,1,641,Self,Exp3a,Explicit
3010,3,59,1,0,1,667,Other,Exp3a,Explicit
3010,3,60,1,1,1,713,Self,Exp3a,Explicit
3010,3,61,1,0,1,629,Other,Exp3a,Explicit
3010,3,62,2,1,1,725,Self,Exp3a,Explicit
3010,3,63,1,1,1,753,Other,Exp3a,Explicit
3010,3,64,2,0,1,839,Other,Exp3a,Explicit
3010,3,65,1,1,1,858,Other,Exp3a,Explicit
3010,3,66,1,1,1,550,Other,Exp3a,Explicit
3010,3,67,0,1,1,591,Other,Exp3a,Explicit
3010,3,68,1,0,1,674,Self,Exp3a,Explicit
3010,3,69,2,1,1,811,Self,Exp3a,Explicit
3010,3,70,0,0,1,665,Other,Exp3a,Explicit
3010,3,71,2,0,1,1004,Other,Exp3a,Explicit
3010,3,72,0,0,0,637,Self,Exp3a,Explicit
3010,3,73,0,1,1,537,Other,Exp3a,Explicit
3010,3,74,0,0,1,596,Self,Exp3a,Explicit
3010,3,75,0,1,1,781,Other,Exp3a,Explicit
3010,3,76,2,0,1,622,Other,Exp3a,Explicit
3010,3,77,2,1,1,785,Other,Exp3a,Explicit
3010,3,78,1,1,1,815,Self,Exp3a,Explicit
3010,3,79,0,0,1,792,Self,Exp3a,Explicit
3010,3,80,0,0,0,601,Other,Exp3a,Explicit
3010,3,81,0,1,1,535,Self,Exp3a,Explicit
3010,3,82,0,1,1,693,Other,Exp3a,Explicit
3010,3,83,1,0,1,771,Other,Exp3a,Explicit
3010,3,84,0,0,1,735,Self,Exp3a,Explicit
3010,3,86,0,1,1,497,Self,Exp3a,Explicit
3010,3,90,0,0,1,758,Other,Exp3a,Explicit
3010,3,97,2,1,1,1022,Other,Exp3a,Explicit
3010,3,99,1,1,1,813,Self,Exp3a,Explicit
3010,3,100,1,1,0,675,Self,Exp3a,Explicit
3010,3,101,0,0,0,598,Other,Exp3a,Explicit
3010,3,102,0,0,1,895,Other,Exp3a,Explicit
3010,3,103,2,0,1,1083,Self,Exp3a,Explicit
3010,3,104,1,0,1,1035,Other,Exp3a,Explicit
3010,3,105,1,1,1,746,Self,Exp3a,Explicit
3010,3,106,2,0,1,1040,Self,Exp3a,Explicit
3010,3,107,2,0,1,931,Self,Exp3a,Explicit
3010,3,111,2,0,1,655,Other,Exp3a,Explicit
3010,3,112,1,0,1,725,Self,Exp3a,Explicit
3010,3,113,1,0,1,992,Self,Exp3a,Explicit
3010,3,114,0,0,1,804,Self,Exp3a,Explicit
3010,3,115,1,1,1,789,Self,Exp3a,Explicit
3010,3,116,2,0,0,744,Other,Exp3a,Explicit
3010,3,117,2,1,1,502,Self,Exp3a,Explicit
3010,3,118,2,1,0,762,Other,Exp3a,Explicit
3010,3,119,2,1,1,397,Other,Exp3a,Explicit
3010,3,120,0,1,0,625,Other,Exp3a,Explicit
3010,4,1,1,1,1,761,Other,Exp3a,Explicit
3010,4,2,0,0,1,744,Other,Exp3a,Explicit
3010,4,3,2,0,0,526,Self,Exp3a,Explicit
3010,4,4,1,0,1,606,Other,Exp3a,Explicit
3010,4,5,2,0,1,738,Other,Exp3a,Explicit
3010,4,6,1,0,1,677,Self,Exp3a,Explicit
3010,4,7,1,0,1,883,Self,Exp3a,Explicit
3010,4,8,2,0,1,786,Self,Exp3a,Explicit
3010,4,9,1,0,0,757,Self,Exp3a,Explicit
3010,4,10,2,1,1,758,Self,Exp3a,Explicit
3010,4,11,0,1,1,716,Self,Exp3a,Explicit
3010,4,12,2,0,1,1082,Other,Exp3a,Explicit
3010,4,13,2,1,1,563,Self,Exp3a,Explicit
3010,4,14,1,0,1,687,Self,Exp3a,Explicit
3010,4,15,2,1,1,858,Other,Exp3a,Explicit
3010,4,16,0,0,1,568,Other,Exp3a,Explicit
3010,4,17,0,0,1,864,Self,Exp3a,Explicit
3010,4,18,1,0,1,761,Other,Exp3a,Explicit
3010,4,19,2,0,0,626,Other,Exp3a,Explicit
3010,4,20,0,0,1,728,Self,Exp3a,Explicit
3010,4,21,2,0,1,646,Other,Exp3a,Explicit
3010,4,22,0,1,0,559,Self,Exp3a,Explicit
3010,4,23,0,1,1,746,Other,Exp3a,Explicit
3010,4,24,0,0,1,883,Self,Exp3a,Explicit
3010,4,25,2,1,1,606,Other,Exp3a,Explicit
3010,4,26,1,1,0,612,Self,Exp3a,Explicit
3010,4,27,0,0,1,725,Other,Exp3a,Explicit
3010,4,29,1,1,0,633,Other,Exp3a,Explicit
3010,4,31,1,0,1,1024,Other,Exp3a,Explicit
3010,4,32,2,1,1,780,Self,Exp3a,Explicit
3010,4,33,1,1,0,735,Self,Exp3a,Explicit
3010,4,34,2,1,1,603,Other,Exp3a,Explicit
3010,4,35,0,1,1,641,Self,Exp3a,Explicit
3010,4,36,0,1,1,743,Other,Exp3a,Explicit
3010,4,37,0,0,1,642,Other,Exp3a,Explicit
3010,4,38,1,0,1,654,Other,Exp3a,Explicit
3010,4,39,1,0,1,791,Self,Exp3a,Explicit
3010,4,40,2,0,1,663,Self,Exp3a,Explicit
3010,4,41,0,0,1,683,Self,Exp3a,Explicit
3010,4,42,1,1,0,721,Self,Exp3a,Explicit
3010,4,43,1,0,1,695,Other,Exp3a,Explicit
3010,4,44,2,1,1,744,Self,Exp3a,Explicit
3010,4,45,1,1,1,585,Other,Exp3a,Explicit
3010,4,46,2,0,1,844,Self,Exp3a,Explicit
3010,4,47,1,1,1,595,Self,Exp3a,Explicit
3010,4,48,2,1,1,689,Other,Exp3a,Explicit
3010,4,49,1,1,1,943,Self,Exp3a,Explicit
3010,4,50,0,1,1,712,Self,Exp3a,Explicit
3010,4,51,1,1,1,666,Other,Exp3a,Explicit
3010,4,52,0,1,1,611,Self,Exp3a,Explicit
3010,4,53,0,0,1,732,Self,Exp3a,Explicit
3010,4,54,0,1,1,501,Other,Exp3a,Explicit
3010,4,56,2,1,1,644,Other,Exp3a,Explicit
3010,4,57,1,1,1,559,Other,Exp3a,Explicit
3010,4,58,2,0,1,661,Self,Exp3a,Explicit
3010,4,59,0,0,1,689,Other,Exp3a,Explicit
3010,4,60,0,1,1,593,Other,Exp3a,Explicit
3010,4,61,1,1,1,618,Other,Exp3a,Explicit
3010,4,62,1,1,1,619,Self,Exp3a,Explicit
3010,4,63,0,0,1,830,Self,Exp3a,Explicit
3010,4,64,1,0,1,677,Self,Exp3a,Explicit
3010,4,65,2,1,0,771,Self,Exp3a,Explicit
3010,4,66,0,0,1,630,Self,Exp3a,Explicit
3010,4,67,0,0,1,674,Other,Exp3a,Explicit
3010,4,68,0,0,1,754,Self,Exp3a,Explicit
3010,4,69,0,0,1,649,Other,Exp3a,Explicit
3010,4,70,0,1,1,1068,Self,Exp3a,Explicit
3010,4,71,1,0,0,930,Self,Exp3a,Explicit
3010,4,72,2,1,1,854,Self,Exp3a,Explicit
3010,4,74,1,0,1,559,Self,Exp3a,Explicit
3010,4,75,1,0,1,632,Other,Exp3a,Explicit
3010,4,76,1,1,1,721,Other,Exp3a,Explicit
3010,4,77,2,1,1,623,Other,Exp3a,Explicit
3010,4,78,0,1,1,685,Self,Exp3a,Explicit
3010,4,79,0,1,1,667,Other,Exp3a,Explicit
3010,4,80,1,1,1,748,Self,Exp3a,Explicit
3010,4,81,1,0,1,943,Other,Exp3a,Explicit
3010,4,82,2,1,1,502,Other,Exp3a,Explicit
3010,4,83,2,0,0,584,Other,Exp3a,Explicit
3010,4,84,1,0,1,649,Other,Exp3a,Explicit
3010,4,85,0,1,1,791,Self,Exp3a,Explicit
3010,4,86,2,1,1,640,Self,Exp3a,Explicit
3010,4,87,0,1,1,750,Other,Exp3a,Explicit
3010,4,88,2,1,1,884,Other,Exp3a,Explicit
3010,4,89,2,1,1,610,Other,Exp3a,Explicit
3010,4,90,2,0,1,656,Other,Exp3a,Explicit
3010,4,91,2,0,1,1057,Self,Exp3a,Explicit
3010,4,92,1,1,0,773,Self,Exp3a,Explicit
3010,4,93,2,0,1,629,Other,Exp3a,Explicit
3010,4,94,1,1,1,604,Other,Exp3a,Explicit
3010,4,95,1,0,1,882,Self,Exp3a,Explicit
3010,4,96,0,0,0,597,Other,Exp3a,Explicit
3010,4,97,0,0,1,630,Other,Exp3a,Explicit
3010,4,98,2,0,1,748,Self,Exp3a,Explicit
3010,4,99,2,0,1,643,Other,Exp3a,Explicit
3010,4,100,2,1,1,635,Self,Exp3a,Explicit
3010,4,101,0,1,1,639,Self,Exp3a,Explicit
3010,4,102,0,1,0,784,Other,Exp3a,Explicit
3010,4,104,0,1,1,668,Other,Exp3a,Explicit
3010,4,105,2,0,1,733,Self,Exp3a,Explicit
3010,4,106,1,0,1,813,Self,Exp3a,Explicit
3010,4,107,0,0,0,745,Self,Exp3a,Explicit
3010,4,108,1,0,1,610,Other,Exp3a,Explicit
3010,4,109,0,0,1,861,Other,Exp3a,Explicit
3010,4,110,1,1,0,657,Self,Exp3a,Explicit
3010,4,111,2,0,1,620,Self,Exp3a,Explicit
3010,4,112,2,1,1,717,Other,Exp3a,Explicit
3010,4,113,1,0,1,728,Other,Exp3a,Explicit
3010,4,114,2,0,0,692,Self,Exp3a,Explicit
3010,4,115,2,0,1,737,Other,Exp3a,Explicit
3010,4,116,2,1,1,775,Self,Exp3a,Explicit
3010,4,117,1,1,1,720,Other,Exp3a,Explicit
3010,4,118,1,1,1,801,Self,Exp3a,Explicit
3010,4,119,0,1,1,570,Self,Exp3a,Explicit
3010,4,120,1,1,1,749,Other,Exp3a,Explicit
3010,5,1,1,1,1,953,Other,Exp3a,Explicit
3010,5,2,1,0,1,623,Other,Exp3a,Explicit
3010,5,3,0,1,0,947,Self,Exp3a,Explicit
3010,5,4,2,0,1,516,Other,Exp3a,Explicit
3010,5,5,0,0,1,642,Other,Exp3a,Explicit
3010,5,6,0,1,1,451,Other,Exp3a,Explicit
3010,5,7,0,1,1,443,Other,Exp3a,Explicit
3010,5,9,0,1,1,677,Self,Exp3a,Explicit
3010,5,10,0,1,1,590,Other,Exp3a,Explicit
3010,5,11,2,1,1,700,Self,Exp3a,Explicit
3010,5,12,0,0,1,656,Other,Exp3a,Explicit
3010,5,13,0,0,1,878,Self,Exp3a,Explicit
3010,5,14,2,1,1,580,Self,Exp3a,Explicit
3010,5,15,2,1,1,621,Other,Exp3a,Explicit
3010,5,16,0,1,0,880,Self,Exp3a,Explicit
3010,5,17,0,0,1,653,Other,Exp3a,Explicit
3010,5,18,2,1,1,646,Self,Exp3a,Explicit
3010,5,19,0,1,1,639,Other,Exp3a,Explicit
3010,5,20,1,1,1,917,Other,Exp3a,Explicit
3010,5,21,2,0,1,774,Other,Exp3a,Explicit
3010,5,22,1,0,0,932,Self,Exp3a,Explicit
3010,5,23,2,1,1,808,Self,Exp3a,Explicit
3010,5,24,2,0,1,696,Self,Exp3a,Explicit
3010,5,25,2,1,1,548,Other,Exp3a,Explicit
3010,5,26,2,0,0,858,Self,Exp3a,Explicit
3010,5,27,1,1,1,728,Self,Exp3a,Explicit
3010,5,28,1,0,1,860,Self,Exp3a,Explicit
3010,5,29,2,0,1,618,Self,Exp3a,Explicit
3010,5,30,0,0,0,888,Self,Exp3a,Explicit
3010,5,31,2,0,1,827,Other,Exp3a,Explicit
3010,5,32,1,0,1,746,Other,Exp3a,Explicit
3010,5,33,1,1,1,781,Other,Exp3a,Explicit
3010,5,34,1,1,1,694,Self,Exp3a,Explicit
3010,5,35,1,1,1,702,Other,Exp3a,Explicit
3010,5,36,1,0,1,772,Self,Exp3a,Explicit
3010,5,37,2,0,1,763,Other,Exp3a,Explicit
3010,5,38,0,0,1,715,Other,Exp3a,Explicit
3010,5,39,0,1,1,602,Other,Exp3a,Explicit
3010,5,40,2,1,1,749,Self,Exp3a,Explicit
3010,5,41,1,0,1,601,Other,Exp3a,Explicit
3010,5,42,0,0,1,649,Self,Exp3a,Explicit
3010,5,43,1,1,1,824,Self,Exp3a,Explicit
3010,5,44,1,1,1,568,Self,Exp3a,Explicit
3010,5,45,1,1,1,622,Other,Exp3a,Explicit
3010,5,46,1,0,1,607,Other,Exp3a,Explicit
3010,5,47,2,0,1,709,Self,Exp3a,Explicit
3010,5,48,1,0,1,659,Self,Exp3a,Explicit
3010,5,49,0,1,1,883,Self,Exp3a,Explicit
3010,5,50,1,0,1,977,Self,Exp3a,Explicit
3010,5,51,1,0,1,706,Other,Exp3a,Explicit
3010,5,52,0,0,1,907,Self,Exp3a,Explicit
3010,5,53,2,0,1,585,Self,Exp3a,Explicit
3010,5,54,2,1,1,434,Other,Exp3a,Explicit
3010,5,55,0,0,0,947,Self,Exp3a,Explicit
3010,5,56,0,1,1,641,Self,Exp3a,Explicit
3010,5,57,1,1,1,908,Self,Exp3a,Explicit
3010,5,58,2,1,1,570,Other,Exp3a,Explicit
3010,5,59,0,0,1,598,Other,Exp3a,Explicit
3010,5,60,2,1,1,866,Other,Exp3a,Explicit
3010,5,61,2,0,1,672,Other,Exp3a,Explicit
3010,5,62,0,0,1,774,Other,Exp3a,Explicit
3010,5,63,1,1,1,860,Other,Exp3a,Explicit
3010,5,64,0,1,1,773,Self,Exp3a,Explicit
3010,5,65,2,0,1,776,Other,Exp3a,Explicit
3010,5,66,1,1,1,790,Self,Exp3a,Explicit
3010,5,67,0,0,1,810,Other,Exp3a,Explicit
3010,5,68,1,0,1,736,Self,Exp3a,Explicit
3010,5,69,2,0,1,678,Self,Exp3a,Explicit
3010,5,70,0,1,1,495,Other,Exp3a,Explicit
3010,5,71,0,1,1,736,Self,Exp3a,Explicit
3010,5,72,1,0,1,750,Self,Exp3a,Explicit
3010,5,73,0,1,1,748,Other,Exp3a,Explicit
3010,5,74,0,0,1,687,Self,Exp3a,Explicit
3010,5,75,0,1,0,835,Other,Exp3a,Explicit
3010,5,76,2,1,1,793,Self,Exp3a,Explicit
3010,5,77,2,1,1,623,Other,Exp3a,Explicit
3010,5,78,0,1,1,981,Other,Exp3a,Explicit
3010,5,79,2,1,1,627,Other,Exp3a,Explicit
3010,5,80,2,0,1,690,Self,Exp3a,Explicit
3010,5,81,0,0,0,807,Self,Exp3a,Explicit
3010,5,82,1,0,1,661,Other,Exp3a,Explicit
3010,5,83,2,0,1,720,Self,Exp3a,Explicit
3010,5,84,2,0,0,753,Other,Exp3a,Explicit
3010,5,85,1,0,1,685,Other,Exp3a,Explicit
3010,5,86,2,1,1,664,Other,Exp3a,Explicit
3010,5,87,2,1,0,718,Self,Exp3a,Explicit
3010,5,88,2,0,1,738,Other,Exp3a,Explicit
3010,5,89,2,0,0,618,Self,Exp3a,Explicit
3010,5,90,1,1,1,841,Self,Exp3a,Explicit
3010,5,91,0,0,0,799,Other,Exp3a,Explicit
3010,5,92,0,0,1,786,Self,Exp3a,Explicit
3010,5,93,1,1,1,632,Self,Exp3a,Explicit
3010,5,94,0,0,1,748,Other,Exp3a,Explicit
3010,5,95,1,0,1,612,Other,Exp3a,Explicit
3010,5,96,2,0,1,664,Other,Exp3a,Explicit
3010,5,97,0,0,1,710,Self,Exp3a,Explicit
3010,5,98,2,1,1,873,Self,Exp3a,Explicit
3010,5,99,2,1,0,512,Self,Exp3a,Explicit
3010,5,100,2,1,1,593,Other,Exp3a,Explicit
3010,5,101,0,1,1,751,Self,Exp3a,Explicit
3010,5,102,1,1,1,736,Self,Exp3a,Explicit
3010,5,103,1,1,1,643,Other,Exp3a,Explicit
3010,5,104,1,1,1,558,Other,Exp3a,Explicit
3010,5,105,0,1,1,562,Other,Exp3a,Explicit
3010,5,106,2,1,1,581,Other,Exp3a,Explicit
3010,5,107,1,0,1,683,Self,Exp3a,Explicit
3010,5,108,2,0,1,956,Self,Exp3a,Explicit
3010,5,109,1,0,1,802,Other,Exp3a,Explicit
3010,5,110,2,1,1,806,Self,Exp3a,Explicit
3010,5,111,1,0,0,665,Self,Exp3a,Explicit
3010,5,112,0,0,1,625,Self,Exp3a,Explicit
3010,5,113,0,1,1,767,Self,Exp3a,Explicit
3010,5,114,1,1,1,806,Other,Exp3a,Explicit
3010,5,115,0,1,1,652,Self,Exp3a,Explicit
3010,5,116,0,0,1,660,Other,Exp3a,Explicit
3010,5,117,1,1,1,776,Other,Exp3a,Explicit
3010,5,118,1,1,0,595,Self,Exp3a,Explicit
3010,5,119,1,0,1,713,Self,Exp3a,Explicit
3010,5,120,1,0,1,744,Other,Exp3a,Explicit
3010,6,1,1,1,0,725,Self,Exp3a,Explicit
3010,6,2,1,0,0,534,Self,Exp3a,Explicit
3010,6,3,1,0,1,651,Self,Exp3a,Explicit
3010,6,4,1,1,1,697,Other,Exp3a,Explicit
3010,6,5,1,1,1,602,Other,Exp3a,Explicit
3010,6,6,2,1,1,737,Other,Exp3a,Explicit
3010,6,7,1,1,1,820,Self,Exp3a,Explicit
3010,6,8,0,0,1,754,Self,Exp3a,Explicit
3010,6,9,1,0,1,726,Other,Exp3a,Explicit
3010,6,10,1,0,1,686,Self,Exp3a,Explicit
3010,6,11,2,1,1,623,Other,Exp3a,Explicit
3010,6,12,2,0,1,800,Other,Exp3a,Explicit
3010,6,13,1,0,1,614,Other,Exp3a,Explicit
3010,6,14,0,0,1,940,Other,Exp3a,Explicit
3010,6,15,2,1,1,648,Other,Exp3a,Explicit
3010,6,16,2,1,1,665,Self,Exp3a,Explicit
3010,6,17,1,1,1,745,Self,Exp3a,Explicit
3010,6,18,0,1,1,714,Other,Exp3a,Explicit
3010,6,19,1,0,1,616,Other,Exp3a,Explicit
3010,6,20,1,1,1,793,Self,Exp3a,Explicit
3010,6,21,0,0,1,685,Self,Exp3a,Explicit
3010,6,22,2,0,1,787,Self,Exp3a,Explicit
3010,6,23,1,1,1,635,Other,Exp3a,Explicit
3010,6,24,1,0,1,887,Self,Exp3a,Explicit
3010,6,25,2,1,1,605,Self,Exp3a,Explicit
3010,6,26,2,0,1,622,Self,Exp3a,Explicit
3010,6,27,2,0,1,751,Other,Exp3a,Explicit
3010,6,28,0,0,1,709,Other,Exp3a,Explicit
3010,6,29,0,0,1,717,Other,Exp3a,Explicit
3010,6,31,0,0,1,770,Other,Exp3a,Explicit
3010,6,32,1,0,1,650,Other,Exp3a,Explicit
3010,6,33,0,1,1,627,Other,Exp3a,Explicit
3010,6,34,0,0,1,671,Other,Exp3a,Explicit
3010,6,35,2,0,1,689,Other,Exp3a,Explicit
3010,6,36,0,0,1,735,Self,Exp3a,Explicit
3010,6,37,0,1,1,838,Other,Exp3a,Explicit
3010,6,38,2,1,1,878,Self,Exp3a,Explicit
3010,6,39,2,0,1,789,Self,Exp3a,Explicit
3010,6,40,1,1,1,995,Self,Exp3a,Explicit
3010,6,41,2,0,1,729,Other,Exp3a,Explicit
3010,6,42,0,1,1,956,Self,Exp3a,Explicit
3010,6,44,1,1,1,736,Other,Exp3a,Explicit
3010,6,45,0,1,0,695,Other,Exp3a,Explicit
3010,6,46,2,1,0,767,Self,Exp3a,Explicit
3010,6,49,1,0,1,898,Other,Exp3a,Explicit
3010,6,51,0,1,1,721,Self,Exp3a,Explicit
3010,6,52,0,1,0,631,Self,Exp3a,Explicit
3010,6,53,0,1,1,541,Self,Exp3a,Explicit
3010,6,54,2,0,1,755,Self,Exp3a,Explicit
3010,6,55,1,0,0,697,Self,Exp3a,Explicit
3010,6,56,2,1,0,789,Other,Exp3a,Explicit
3010,6,57,2,0,1,934,Other,Exp3a,Explicit
3010,6,58,0,1,1,926,Other,Exp3a,Explicit
3010,6,59,0,1,0,663,Self,Exp3a,Explicit
3010,6,60,0,0,1,848,Self,Exp3a,Explicit
3010,6,62,2,0,1,900,Self,Exp3a,Explicit
3010,6,65,0,1,1,871,Self,Exp3a,Explicit
3010,6,66,1,1,1,695,Other,Exp3a,Explicit
3010,6,67,2,1,1,853,Other,Exp3a,Explicit
3010,6,68,0,1,0,1011,Self,Exp3a,Explicit
3010,6,70,0,0,1,914,Self,Exp3a,Explicit
3010,6,76,0,1,1,790,Other,Exp3a,Explicit
3010,6,79,0,0,1,651,Self,Exp3a,Explicit
3010,6,80,0,1,1,631,Other,Exp3a,Explicit
3010,6,81,2,0,1,805,Self,Exp3a,Explicit
3010,6,82,1,0,1,689,Self,Exp3a,Explicit
3010,6,83,2,0,1,607,Other,Exp3a,Explicit
3010,6,84,2,1,1,791,Other,Exp3a,Explicit
3010,6,85,0,0,1,520,Other,Exp3a,Explicit
3010,6,86,1,0,1,641,Other,Exp3a,Explicit
3010,6,87,0,0,0,863,Other,Exp3a,Explicit
3010,6,88,2,1,1,837,Self,Exp3a,Explicit
3010,6,89,0,0,1,860,Self,Exp3a,Explicit
3010,6,90,1,1,1,799,Self,Exp3a,Explicit
3010,6,91,2,1,1,651,Other,Exp3a,Explicit
3010,6,92,2,0,1,646,Other,Exp3a,Explicit
3010,6,93,2,0,1,831,Other,Exp3a,Explicit
3010,6,94,0,1,1,656,Other,Exp3a,Explicit
3010,6,95,1,0,1,654,Other,Exp3a,Explicit
3010,6,96,1,0,1,582,Self,Exp3a,Explicit
3010,6,97,0,0,1,868,Other,Exp3a,Explicit
3010,6,98,0,1,0,688,Other,Exp3a,Explicit
3010,6,99,0,1,1,726,Self,Exp3a,Explicit
3010,6,100,0,0,1,575,Self,Exp3a,Explicit
3010,6,101,1,1,1,737,Self,Exp3a,Explicit
3010,6,102,0,1,1,680,Other,Exp3a,Explicit
3010,6,103,1,0,1,859,Self,Exp3a,Explicit
3010,6,104,0,0,1,705,Self,Exp3a,Explicit
3010,6,105,2,1,1,909,Other,Exp3a,Explicit
3010,6,106,0,1,1,765,Self,Exp3a,Explicit
3010,6,107,1,1,1,748,Other,Exp3a,Explicit
3010,6,108,1,0,1,730,Self,Exp3a,Explicit
3010,6,109,2,0,1,626,Self,Exp3a,Explicit
3010,6,111,0,0,1,695,Other,Exp3a,Explicit
3010,6,112,2,0,1,840,Other,Exp3a,Explicit
3010,6,113,1,1,1,646,Other,Exp3a,Explicit
3010,6,114,1,0,1,599,Other,Exp3a,Explicit
3010,6,115,2,0,1,658,Self,Exp3a,Explicit
3010,6,116,2,1,1,699,Self,Exp3a,Explicit
3010,6,117,0,1,1,769,Self,Exp3a,Explicit
3010,6,118,0,0,1,679,Other,Exp3a,Explicit
3010,6,119,1,1,1,523,Other,Exp3a,Explicit
3010,6,120,2,0,1,857,Other,Exp3a,Explicit
3011,1,3,1,0,1,1095,Other,Exp3a,Explicit
3011,1,4,1,0,0,949,Self,Exp3a,Explicit
3011,1,6,1,1,1,913,Other,Exp3a,Explicit
3011,1,7,1,0,1,866,Self,Exp3a,Explicit
3011,1,8,0,0,0,756,Self,Exp3a,Explicit
3011,1,9,1,1,1,894,Self,Exp3a,Explicit
3011,1,12,2,0,1,934,Self,Exp3a,Explicit
3011,1,13,1,1,0,735,Self,Exp3a,Explicit
3011,1,14,0,0,0,683,Self,Exp3a,Explicit
3011,1,15,0,1,1,842,Other,Exp3a,Explicit
3011,1,16,1,0,1,1060,Self,Exp3a,Explicit
3011,1,18,0,1,1,718,Self,Exp3a,Explicit
3011,1,19,2,1,1,739,Self,Exp3a,Explicit
3011,1,20,2,0,0,1077,Other,Exp3a,Explicit
3011,1,22,0,0,0,939,Other,Exp3a,Explicit
3011,1,23,1,0,0,1053,Other,Exp3a,Explicit
3011,1,24,2,1,1,879,Self,Exp3a,Explicit
3011,1,25,0,0,1,1019,Self,Exp3a,Explicit
3011,1,26,1,1,0,1004,Other,Exp3a,Explicit
3011,1,27,0,0,0,924,Other,Exp3a,Explicit
3011,1,28,2,1,1,1074,Other,Exp3a,Explicit
3011,1,29,2,0,0,1044,Self,Exp3a,Explicit
3011,1,30,0,1,1,904,Self,Exp3a,Explicit
3011,1,31,0,0,1,986,Self,Exp3a,Explicit
3011,1,32,2,1,0,1035,Self,Exp3a,Explicit
3011,1,33,0,0,1,903,Other,Exp3a,Explicit
3011,1,34,0,1,1,833,Self,Exp3a,Explicit
3011,1,35,0,1,1,901,Other,Exp3a,Explicit
3011,1,36,0,0,1,1029,Other,Exp3a,Explicit
3011,1,37,1,1,1,1013,Self,Exp3a,Explicit
3011,1,38,1,0,1,977,Self,Exp3a,Explicit
3011,1,39,2,1,1,938,Other,Exp3a,Explicit
3011,1,40,2,1,1,948,Self,Exp3a,Explicit
3011,1,41,2,1,1,1048,Other,Exp3a,Explicit
3011,1,42,1,1,1,920,Other,Exp3a,Explicit
3011,1,43,2,0,0,939,Other,Exp3a,Explicit
3011,1,44,0,1,1,1010,Self,Exp3a,Explicit
3011,1,45,2,1,1,938,Self,Exp3a,Explicit
3011,1,46,1,1,0,1060,Self,Exp3a,Explicit
3011,1,47,2,0,1,916,Other,Exp3a,Explicit
3011,1,48,0,1,1,930,Other,Exp3a,Explicit
3011,1,49,0,1,1,976,Self,Exp3a,Explicit
3011,1,50,1,1,0,1042,Other,Exp3a,Explicit
3011,1,51,1,0,1,985,Other,Exp3a,Explicit
3011,1,52,1,1,0,1001,Other,Exp3a,Explicit
3011,1,53,0,0,1,827,Other,Exp3a,Explicit
3011,1,54,2,0,1,849,Self,Exp3a,Explicit
3011,1,55,0,0,1,765,Self,Exp3a,Explicit
3011,1,56,0,1,1,850,Other,Exp3a,Explicit
3011,1,57,2,0,1,1034,Self,Exp3a,Explicit
3011,1,58,2,0,1,940,Other,Exp3a,Explicit
3011,1,59,2,1,1,854,Other,Exp3a,Explicit
3011,1,60,1,0,1,990,Self,Exp3a,Explicit
3011,1,61,0,0,1,1006,Self,Exp3a,Explicit
3011,1,62,0,1,1,884,Self,Exp3a,Explicit
3011,1,63,1,0,0,1056,Self,Exp3a,Explicit
3011,1,64,1,0,1,825,Other,Exp3a,Explicit
3011,1,65,0,1,0,957,Other,Exp3a,Explicit
3011,1,66,1,1,0,893,Other,Exp3a,Explicit
3011,1,67,1,1,1,1025,Self,Exp3a,Explicit
3011,1,68,1,0,1,789,Self,Exp3a,Explicit
3011,1,71,0,1,1,720,Self,Exp3a,Explicit
3011,1,72,1,1,1,787,Self,Exp3a,Explicit
3011,1,73,1,1,1,875,Self,Exp3a,Explicit
3011,1,74,2,0,1,957,Self,Exp3a,Explicit
3011,1,75,2,0,1,777,Self,Exp3a,Explicit
3011,1,76,2,0,1,866,Self,Exp3a,Explicit
3011,1,77,0,1,1,842,Other,Exp3a,Explicit
3011,1,78,0,0,1,1032,Self,Exp3a,Explicit
3011,1,79,0,1,1,964,Other,Exp3a,Explicit
3011,1,80,0,1,1,868,Self,Exp3a,Explicit
3011,1,81,2,1,0,865,Self,Exp3a,Explicit
3011,1,82,2,0,1,763,Self,Exp3a,Explicit
3011,1,83,1,1,1,903,Other,Exp3a,Explicit
3011,1,84,2,1,1,823,Other,Exp3a,Explicit
3011,1,85,1,1,1,1057,Other,Exp3a,Explicit
3011,1,86,1,1,1,945,Self,Exp3a,Explicit
3011,1,87,0,1,1,928,Other,Exp3a,Explicit
3011,1,88,0,0,1,1054,Self,Exp3a,Explicit
3011,1,89,2,1,1,864,Self,Exp3a,Explicit
3011,1,90,1,1,1,940,Self,Exp3a,Explicit
3011,1,91,0,0,0,894,Other,Exp3a,Explicit
3011,1,92,2,0,1,994,Other,Exp3a,Explicit
3011,1,93,2,0,1,923,Other,Exp3a,Explicit
3011,1,94,1,0,1,901,Other,Exp3a,Explicit
3011,1,97,2,0,1,823,Other,Exp3a,Explicit
3011,1,98,1,0,1,932,Self,Exp3a,Explicit
3011,1,99,0,0,1,973,Other,Exp3a,Explicit
3011,1,100,2,1,1,991,Other,Exp3a,Explicit
3011,1,101,2,0,1,1081,Self,Exp3a,Explicit
3011,1,103,0,1,1,381,Other,Exp3a,Explicit
3011,1,104,2,1,0,999,Self,Exp3a,Explicit
3011,1,105,0,1,1,787,Self,Exp3a,Explicit
3011,1,106,1,0,0,813,Other,Exp3a,Explicit
3011,1,107,2,0,1,810,Other,Exp3a,Explicit
3011,1,108,2,1,1,762,Other,Exp3a,Explicit
3011,1,109,2,1,1,806,Other,Exp3a,Explicit
3011,1,110,0,0,1,1044,Self,Exp3a,Explicit
3011,1,111,0,0,1,800,Other,Exp3a,Explicit
3011,1,112,0,0,0,857,Self,Exp3a,Explicit
3011,1,113,2,0,1,759,Other,Exp3a,Explicit
3011,1,114,0,1,1,751,Self,Exp3a,Explicit
3011,1,115,1,0,1,889,Self,Exp3a,Explicit
3011,1,116,1,1,1,993,Other,Exp3a,Explicit
3011,1,117,2,1,1,929,Self,Exp3a,Explicit
3011,1,118,0,0,1,780,Other,Exp3a,Explicit
3011,1,119,2,1,1,812,Other,Exp3a,Explicit
3011,1,120,1,1,1,930,Other,Exp3a,Explicit
3011,2,1,1,0,1,898,Self,Exp3a,Explicit
3011,2,2,1,1,1,998,Other,Exp3a,Explicit
3011,2,4,2,1,1,702,Other,Exp3a,Explicit
3011,2,5,1,1,1,957,Self,Exp3a,Explicit
3011,2,6,1,0,1,799,Other,Exp3a,Explicit
3011,2,7,2,0,1,1087,Other,Exp3a,Explicit
3011,2,8,1,1,0,815,Self,Exp3a,Explicit
3011,2,9,2,1,1,975,Self,Exp3a,Explicit
3011,2,10,0,0,1,903,Other,Exp3a,Explicit
3011,2,11,0,1,1,893,Other,Exp3a,Explicit
3011,2,12,0,0,1,944,Self,Exp3a,Explicit
3011,2,13,2,0,1,874,Self,Exp3a,Explicit
3011,2,14,2,0,1,928,Other,Exp3a,Explicit
3011,2,16,2,0,0,988,Self,Exp3a,Explicit
3011,2,17,1,1,1,879,Self,Exp3a,Explicit
3011,2,18,0,1,1,860,Other,Exp3a,Explicit
3011,2,19,1,1,0,930,Other,Exp3a,Explicit
3011,2,20,2,0,0,884,Self,Exp3a,Explicit
3011,2,21,0,0,1,954,Other,Exp3a,Explicit
3011,2,22,0,0,1,946,Other,Exp3a,Explicit
3011,2,23,1,1,1,836,Self,Exp3a,Explicit
3011,2,24,1,0,1,915,Other,Exp3a,Explicit
3011,2,25,2,1,0,1025,Self,Exp3a,Explicit
3011,2,26,1,0,1,977,Self,Exp3a,Explicit
3011,2,27,0,0,1,979,Self,Exp3a,Explicit
3011,2,28,2,1,1,845,Other,Exp3a,Explicit
3011,2,29,0,0,1,1039,Other,Exp3a,Explicit
3011,2,30,1,1,1,855,Other,Exp3a,Explicit
3011,2,31,1,1,1,738,Self,Exp3a,Explicit
3011,2,32,2,1,1,1092,Other,Exp3a,Explicit
3011,2,33,1,0,1,908,Other,Exp3a,Explicit
3011,2,35,2,0,1,930,Self,Exp3a,Explicit
3011,2,36,1,0,0,993,Other,Exp3a,Explicit
3011,2,38,0,1,1,733,Other,Exp3a,Explicit
3011,2,39,1,1,0,873,Other,Exp3a,Explicit
3011,2,40,1,0,1,889,Other,Exp3a,Explicit
3011,2,41,0,0,0,985,Other,Exp3a,Explicit
3011,2,42,2,1,1,964,Self,Exp3a,Explicit
3011,2,43,2,1,1,760,Self,Exp3a,Explicit
3011,2,44,0,0,0,773,Self,Exp3a,Explicit
3011,2,45,1,1,1,1061,Other,Exp3a,Explicit
3011,2,46,0,1,1,919,Self,Exp3a,Explicit
3011,2,47,0,1,1,773,Self,Exp3a,Explicit
3011,2,48,0,1,1,770,Self,Exp3a,Explicit
3011,2,50,0,1,1,796,Other,Exp3a,Explicit
3011,2,51,1,0,0,900,Self,Exp3a,Explicit
3011,2,52,1,0,1,988,Self,Exp3a,Explicit
3011,2,53,0,0,0,974,Self,Exp3a,Explicit
3011,2,54,0,1,1,758,Other,Exp3a,Explicit
3011,2,55,2,1,1,693,Other,Exp3a,Explicit
3011,2,56,2,0,0,743,Other,Exp3a,Explicit
3011,2,57,2,0,0,593,Other,Exp3a,Explicit
3011,2,58,2,0,1,827,Other,Exp3a,Explicit
3011,2,59,2,1,0,775,Other,Exp3a,Explicit
3011,2,60,2,0,0,755,Self,Exp3a,Explicit
3011,2,61,1,1,1,450,Other,Exp3a,Explicit
3011,2,62,2,1,1,766,Self,Exp3a,Explicit
3011,2,63,1,0,1,854,Other,Exp3a,Explicit
3011,2,64,0,1,1,692,Other,Exp3a,Explicit
3011,2,65,1,0,1,928,Other,Exp3a,Explicit
3011,2,66,2,0,1,752,Other,Exp3a,Explicit
3011,2,67,2,1,1,786,Other,Exp3a,Explicit
3011,2,68,1,0,1,941,Self,Exp3a,Explicit
3011,2,69,1,1,1,703,Self,Exp3a,Explicit
3011,2,70,0,1,1,827,Other,Exp3a,Explicit
3011,2,71,0,1,1,971,Self,Exp3a,Explicit
3011,2,72,1,0,1,897,Self,Exp3a,Explicit
3011,2,73,0,1,1,745,Other,Exp3a,Explicit
3011,2,74,0,0,1,801,Other,Exp3a,Explicit
3011,2,75,1,0,0,1021,Other,Exp3a,Explicit
3011,2,76,2,0,1,899,Other,Exp3a,Explicit
3011,2,77,1,1,1,925,Self,Exp3a,Explicit
3011,2,78,0,0,1,765,Self,Exp3a,Explicit
3011,2,79,1,1,1,907,Other,Exp3a,Explicit
3011,2,80,2,1,1,756,Other,Exp3a,Explicit
3011,2,81,2,1,1,1082,Self,Exp3a,Explicit
3011,2,82,2,0,0,1062,Self,Exp3a,Explicit
3011,2,83,2,1,1,922,Self,Exp3a,Explicit
3011,2,84,2,1,1,1070,Other,Exp3a,Explicit
3011,2,86,0,0,0,1083,Other,Exp3a,Explicit
3011,2,88,1,1,1,1061,Other,Exp3a,Explicit
3011,2,89,0,0,1,1015,Self,Exp3a,Explicit
3011,2,90,0,1,1,899,Self,Exp3a,Explicit
3011,2,91,2,0,1,1012,Self,Exp3a,Explicit
3011,2,92,1,0,0,990,Other,Exp3a,Explicit
3011,2,94,2,0,1,876,Self,Exp3a,Explicit
3011,2,95,0,0,1,904,Other,Exp3a,Explicit
3011,2,96,1,1,1,1044,Self,Exp3a,Explicit
3011,2,99,1,0,1,891,Self,Exp3a,Explicit
3011,2,100,0,0,0,724,Self,Exp3a,Explicit
3011,2,101,2,0,1,792,Other,Exp3a,Explicit
3011,2,102,0,1,1,800,Self,Exp3a,Explicit
3011,2,103,2,0,1,794,Other,Exp3a,Explicit
3011,2,104,0,1,0,826,Self,Exp3a,Explicit
3011,2,105,2,1,1,797,Other,Exp3a,Explicit
3011,2,107,1,0,0,599,Other,Exp3a,Explicit
3011,2,108,0,1,1,963,Self,Exp3a,Explicit
3011,2,109,1,0,1,1027,Self,Exp3a,Explicit
3011,2,110,2,1,1,893,Self,Exp3a,Explicit
3011,2,113,2,0,1,744,Self,Exp3a,Explicit
3011,2,114,1,1,1,912,Other,Exp3a,Explicit
3011,2,115,0,0,1,890,Other,Exp3a,Explicit
3011,2,116,2,0,0,1029,Self,Exp3a,Explicit
3011,2,117,2,1,1,803,Other,Exp3a,Explicit
3011,2,118,1,1,1,865,Self,Exp3a,Explicit
3011,2,119,0,0,1,983,Self,Exp3a,Explicit
3011,2,120,0,0,0,1041,Other,Exp3a,Explicit
3011,3,2,1,1,1,1020,Other,Exp3a,Explicit
3011,3,3,0,0,0,1037,Other,Exp3a,Explicit
3011,3,4,0,0,1,839,Other,Exp3a,Explicit
3011,3,5,1,1,0,1063,Other,Exp3a,Explicit
3011,3,6,1,0,1,885,Other,Exp3a,Explicit
3011,3,7,0,1,0,1087,Self,Exp3a,Explicit
3011,3,8,2,1,1,879,Self,Exp3a,Explicit
3011,3,9,1,0,1,1056,Other,Exp3a,Explicit
3011,3,11,1,0,1,926,Other,Exp3a,Explicit
3011,3,12,0,1,1,1034,Other,Exp3a,Explicit
3011,3,13,2,0,1,904,Other,Exp3a,Explicit
3011,3,14,2,1,1,848,Other,Exp3a,Explicit
3011,3,15,1,1,1,881,Self,Exp3a,Explicit
3011,3,17,0,1,1,795,Other,Exp3a,Explicit
3011,3,18,2,1,1,995,Other,Exp3a,Explicit
3011,3,19,2,0,1,883,Self,Exp3a,Explicit
3011,3,20,2,0,1,852,Self,Exp3a,Explicit
3011,3,21,0,1,1,1036,Other,Exp3a,Explicit
3011,3,22,1,1,1,980,Other,Exp3a,Explicit
3011,3,23,1,1,1,747,Self,Exp3a,Explicit
3011,3,24,0,0,1,817,Other,Exp3a,Explicit
3011,3,25,2,0,1,927,Other,Exp3a,Explicit
3011,3,26,2,1,0,998,Other,Exp3a,Explicit
3011,3,27,1,0,1,916,Self,Exp3a,Explicit
3011,3,28,2,0,1,810,Other,Exp3a,Explicit
3011,3,29,0,0,1,882,Self,Exp3a,Explicit
3011,3,30,0,0,1,858,Self,Exp3a,Explicit
3011,3,31,0,1,1,892,Self,Exp3a,Explicit
3011,3,32,0,0,1,955,Other,Exp3a,Explicit
3011,3,33,2,1,0,955,Self,Exp3a,Explicit
3011,3,34,0,1,1,961,Self,Exp3a,Explicit
3011,3,35,0,1,1,891,Self,Exp3a,Explicit
3011,3,36,0,1,1,833,Self,Exp3a,Explicit
3011,3,37,1,1,0,1009,Self,Exp3a,Explicit
3011,3,38,2,1,1,884,Other,Exp3a,Explicit
3011,3,39,2,1,1,876,Other,Exp3a,Explicit
3011,3,40,1,0,1,1026,Self,Exp3a,Explicit
3011,3,41,2,0,0,820,Self,Exp3a,Explicit
3011,3,42,2,1,1,860,Self,Exp3a,Explicit
3011,3,43,2,0,1,816,Self,Exp3a,Explicit
3011,3,44,1,0,1,1093,Self,Exp3a,Explicit
3011,3,45,1,0,1,1001,Other,Exp3a,Explicit
3011,3,46,0,0,0,979,Self,Exp3a,Explicit
3011,3,47,1,0,1,877,Other,Exp3a,Explicit
3011,3,48,1,0,1,917,Self,Exp3a,Explicit
3011,3,49,0,0,1,1009,Self,Exp3a,Explicit
3011,3,50,2,0,0,1099,Other,Exp3a,Explicit
3011,3,53,0,1,1,937,Other,Exp3a,Explicit
3011,3,54,1,1,0,1011,Other,Exp3a,Explicit
3011,3,55,1,1,1,871,Other,Exp3a,Explicit
3011,3,56,1,1,1,812,Self,Exp3a,Explicit
3011,3,57,1,0,0,838,Self,Exp3a,Explicit
3011,3,58,0,0,1,912,Other,Exp3a,Explicit
3011,3,59,2,1,1,836,Self,Exp3a,Explicit
3011,3,60,2,0,1,950,Other,Exp3a,Explicit
3011,3,61,0,1,0,852,Self,Exp3a,Explicit
3011,3,62,2,1,1,873,Self,Exp3a,Explicit
3011,3,63,0,0,1,1031,Self,Exp3a,Explicit
3011,3,64,1,1,1,793,Self,Exp3a,Explicit
3011,3,65,1,0,0,837,Self,Exp3a,Explicit
3011,3,66,1,0,1,1045,Other,Exp3a,Explicit
3011,3,67,1,0,1,917,Other,Exp3a,Explicit
3011,3,68,0,1,1,786,Self,Exp3a,Explicit
3011,3,69,2,1,0,1090,Other,Exp3a,Explicit
3011,3,70,2,0,1,874,Self,Exp3a,Explicit
3011,3,71,2,1,0,1026,Self,Exp3a,Explicit
3011,3,72,1,1,1,836,Self,Exp3a,Explicit
3011,3,74,1,0,1,1069,Self,Exp3a,Explicit
3011,3,75,2,1,1,869,Other,Exp3a,Explicit
3011,3,76,2,0,1,803,Other,Exp3a,Explicit
3011,3,77,1,0,1,1033,Self,Exp3a,Explicit
3011,3,78,0,1,1,930,Other,Exp3a,Explicit
3011,3,79,0,0,1,1054,Self,Exp3a,Explicit
3011,3,80,1,0,1,1069,Other,Exp3a,Explicit
3011,3,81,1,1,1,1015,Other,Exp3a,Explicit
3011,3,82,2,0,1,927,Other,Exp3a,Explicit
3011,3,83,0,0,1,893,Other,Exp3a,Explicit
3011,3,84,0,1,1,961,Self,Exp3a,Explicit
3011,3,85,0,1,1,905,Other,Exp3a,Explicit
3011,3,86,2,0,1,981,Self,Exp3a,Explicit
3011,3,88,2,1,1,1018,Other,Exp3a,Explicit
3011,3,89,0,1,1,920,Self,Exp3a,Explicit
3011,3,90,2,1,1,774,Self,Exp3a,Explicit
3011,3,91,1,0,1,1072,Self,Exp3a,Explicit
3011,3,92,2,0,0,984,Self,Exp3a,Explicit
3011,3,93,2,0,1,835,Self,Exp3a,Explicit
3011,3,94,0,1,1,793,Self,Exp3a,Explicit
3011,3,95,1,1,0,863,Other,Exp3a,Explicit
3011,3,96,0,0,1,863,Other,Exp3a,Explicit
3011,3,97,0,0,1,1023,Self,Exp3a,Explicit
3011,3,98,0,0,1,925,Other,Exp3a,Explicit
3011,3,99,1,1,1,955,Other,Exp3a,Explicit
3011,3,100,1,0,1,872,Other,Exp3a,Explicit
3011,3,101,0,1,0,938,Other,Exp3a,Explicit
3011,3,102,2,0,1,894,Other,Exp3a,Explicit
3011,3,105,2,0,1,805,Self,Exp3a,Explicit
3011,3,106,1,1,0,960,Self,Exp3a,Explicit
3011,3,108,2,1,1,710,Other,Exp3a,Explicit
3011,3,109,1,1,1,968,Other,Exp3a,Explicit
3011,3,110,2,0,1,1004,Other,Exp3a,Explicit
3011,3,111,0,0,1,983,Other,Exp3a,Explicit
3011,3,112,1,1,1,1041,Self,Exp3a,Explicit
3011,3,113,2,1,1,1089,Other,Exp3a,Explicit
3011,3,115,1,1,0,927,Self,Exp3a,Explicit
3011,3,116,0,0,1,1081,Self,Exp3a,Explicit
3011,3,117,2,1,1,971,Self,Exp3a,Explicit
3011,3,118,2,0,1,940,Other,Exp3a,Explicit
3011,3,119,1,1,1,1026,Other,Exp3a,Explicit
3011,3,120,0,0,1,934,Self,Exp3a,Explicit
3011,4,2,2,1,1,1066,Other,Exp3a,Explicit
3011,4,3,1,1,1,930,Self,Exp3a,Explicit
3011,4,4,1,1,1,921,Other,Exp3a,Explicit
3011,4,5,2,0,1,845,Self,Exp3a,Explicit
3011,4,6,1,1,1,848,Other,Exp3a,Explicit
3011,4,7,0,0,0,894,Self,Exp3a,Explicit
3011,4,8,0,0,1,840,Self,Exp3a,Explicit
3011,4,10,0,1,1,664,Other,Exp3a,Explicit
3011,4,11,1,1,1,903,Other,Exp3a,Explicit
3011,4,12,2,0,1,837,Other,Exp3a,Explicit
3011,4,13,2,0,1,1059,Other,Exp3a,Explicit
3011,4,14,2,1,1,735,Other,Exp3a,Explicit
3011,4,15,2,0,0,987,Other,Exp3a,Explicit
3011,4,16,1,0,0,973,Other,Exp3a,Explicit
3011,4,17,0,1,1,826,Self,Exp3a,Explicit
3011,4,18,2,0,1,1012,Other,Exp3a,Explicit
3011,4,19,2,1,1,1078,Other,Exp3a,Explicit
3011,4,22,1,0,0,872,Other,Exp3a,Explicit
3011,4,23,1,1,1,753,Other,Exp3a,Explicit
3011,4,24,0,1,1,879,Self,Exp3a,Explicit
3011,4,26,0,1,1,759,Self,Exp3a,Explicit
3011,4,27,1,1,1,995,Other,Exp3a,Explicit
3011,4,28,2,0,1,941,Other,Exp3a,Explicit
3011,4,29,1,1,1,870,Self,Exp3a,Explicit
3011,4,30,0,0,0,1008,Self,Exp3a,Explicit
3011,4,31,2,1,1,974,Other,Exp3a,Explicit
3011,4,32,0,1,1,871,Other,Exp3a,Explicit
3011,4,33,0,1,1,767,Other,Exp3a,Explicit
3011,4,34,2,1,1,1087,Self,Exp3a,Explicit
3011,4,35,0,0,1,1058,Other,Exp3a,Explicit
3011,4,36,1,0,1,970,Other,Exp3a,Explicit
3011,4,39,1,0,1,870,Other,Exp3a,Explicit
3011,4,40,1,0,1,1030,Self,Exp3a,Explicit
3011,4,41,1,1,1,911,Self,Exp3a,Explicit
3011,4,43,0,1,1,739,Self,Exp3a,Explicit
3011,4,44,2,1,0,941,Other,Exp3a,Explicit
3011,4,45,2,0,1,945,Self,Exp3a,Explicit
3011,4,46,1,0,1,853,Self,Exp3a,Explicit
3011,4,47,1,1,1,902,Self,Exp3a,Explicit
3011,4,48,0,1,1,1034,Other,Exp3a,Explicit
3011,4,50,0,1,1,1074,Other,Exp3a,Explicit
3011,4,51,0,1,1,822,Self,Exp3a,Explicit
3011,4,53,0,0,1,981,Self,Exp3a,Explicit
3011,4,54,2,1,0,1053,Self,Exp3a,Explicit
3011,4,55,1,0,0,755,Self,Exp3a,Explicit
3011,4,56,0,0,1,871,Other,Exp3a,Explicit
3011,4,57,0,0,1,817,Other,Exp3a,Explicit
3011,4,58,2,0,1,1065,Self,Exp3a,Explicit
3011,4,59,1,0,1,1004,Self,Exp3a,Explicit
3011,4,60,0,0,0,899,Self,Exp3a,Explicit
3011,4,62,0,1,1,843,Other,Exp3a,Explicit
3011,4,63,0,0,1,1045,Self,Exp3a,Explicit
3011,4,64,0,1,1,687,Other,Exp3a,Explicit
3011,4,65,1,1,0,870,Self,Exp3a,Explicit
3011,4,66,2,1,1,976,Self,Exp3a,Explicit
3011,4,67,2,1,0,814,Other,Exp3a,Explicit
3011,4,69,1,0,1,990,Self,Exp3a,Explicit
3011,4,71,1,1,1,578,Other,Exp3a,Explicit
3011,4,72,0,0,1,959,Other,Exp3a,Explicit
3011,4,73,0,1,1,781,Other,Exp3a,Explicit
3011,4,74,0,1,1,651,Other,Exp3a,Explicit
3011,4,75,2,1,1,1031,Self,Exp3a,Explicit
3011,4,76,2,0,1,847,Self,Exp3a,Explicit
3011,4,77,1,0,1,873,Self,Exp3a,Explicit
3011,4,78,2,1,1,1000,Other,Exp3a,Explicit
3011,4,79,0,1,1,956,Self,Exp3a,Explicit
3011,4,80,2,1,1,794,Self,Exp3a,Explicit
3011,4,81,2,0,1,986,Self,Exp3a,Explicit
3011,4,82,0,0,1,892,Other,Exp3a,Explicit
3011,4,83,2,0,1,966,Other,Exp3a,Explicit
3011,4,84,0,0,1,1003,Other,Exp3a,Explicit
3011,4,85,1,1,1,849,Self,Exp3a,Explicit
3011,4,86,0,0,0,989,Self,Exp3a,Explicit
3011,4,87,1,0,1,1085,Other,Exp3a,Explicit
3011,4,89,0,1,1,836,Self,Exp3a,Explicit
3011,4,90,0,1,1,991,Self,Exp3a,Explicit
3011,4,91,1,0,1,1019,Self,Exp3a,Explicit
3011,4,92,1,1,1,959,Other,Exp3a,Explicit
3011,4,93,1,0,1,893,Other,Exp3a,Explicit
3011,4,95,2,0,1,962,Self,Exp3a,Explicit
3011,4,96,0,1,1,714,Self,Exp3a,Explicit
3011,4,97,2,1,1,800,Other,Exp3a,Explicit
3011,4,98,2,0,1,1050,Self,Exp3a,Explicit
3011,4,99,2,1,1,766,Other,Exp3a,Explicit
3011,4,100,1,1,0,964,Self,Exp3a,Explicit
3011,4,101,1,1,1,709,Self,Exp3a,Explicit
3011,4,102,0,0,1,975,Other,Exp3a,Explicit
3011,4,103,0,1,0,865,Self,Exp3a,Explicit
3011,4,104,0,0,0,1049,Self,Exp3a,Explicit
3011,4,105,1,0,1,1029,Other,Exp3a,Explicit
3011,4,106,2,1,1,959,Self,Exp3a,Explicit
3011,4,107,0,0,1,966,Self,Exp3a,Explicit
3011,4,109,1,0,1,962,Other,Exp3a,Explicit
3011,4,110,1,1,1,922,Other,Exp3a,Explicit
3011,4,111,2,0,1,932,Other,Exp3a,Explicit
3011,4,112,1,0,1,1010,Self,Exp3a,Explicit
3011,4,113,2,1,1,980,Self,Exp3a,Explicit
3011,4,114,1,1,0,868,Self,Exp3a,Explicit
3011,4,115,2,0,1,794,Other,Exp3a,Explicit
3011,4,116,2,0,1,882,Self,Exp3a,Explicit
3011,4,117,0,0,1,800,Self,Exp3a,Explicit
3011,4,118,1,0,1,1022,Self,Exp3a,Explicit
3011,4,119,1,1,1,820,Other,Exp3a,Explicit
3011,4,120,1,1,1,939,Other,Exp3a,Explicit
3011,5,2,2,0,1,956,Self,Exp3a,Explicit
3011,5,3,0,0,1,922,Other,Exp3a,Explicit
3011,5,4,2,1,1,1032,Other,Exp3a,Explicit
3011,5,5,1,0,1,846,Other,Exp3a,Explicit
3011,5,6,2,0,1,774,Other,Exp3a,Explicit
3011,5,7,2,0,1,837,Self,Exp3a,Explicit
3011,5,8,2,1,0,833,Self,Exp3a,Explicit
3011,5,9,2,1,1,1021,Other,Exp3a,Explicit
3011,5,10,0,0,1,917,Self,Exp3a,Explicit
3011,5,12,2,1,1,929,Self,Exp3a,Explicit
3011,5,13,1,0,1,806,Self,Exp3a,Explicit
3011,5,14,1,1,1,804,Self,Exp3a,Explicit
3011,5,15,1,1,1,688,Other,Exp3a,Explicit
3011,5,16,1,0,0,938,Self,Exp3a,Explicit
3011,5,17,0,1,1,780,Self,Exp3a,Explicit
3011,5,18,2,1,1,843,Other,Exp3a,Explicit
3011,5,19,1,1,1,991,Other,Exp3a,Explicit
3011,5,21,1,1,1,1071,Other,Exp3a,Explicit
3011,5,22,0,1,1,883,Other,Exp3a,Explicit
3011,5,23,2,1,1,675,Other,Exp3a,Explicit
3011,5,24,2,0,0,953,Other,Exp3a,Explicit
3011,5,25,1,1,1,978,Self,Exp3a,Explicit
3011,5,26,1,0,1,919,Other,Exp3a,Explicit
3011,5,27,0,0,1,973,Other,Exp3a,Explicit
3011,5,28,2,1,0,1031,Self,Exp3a,Explicit
3011,5,29,1,1,1,853,Self,Exp3a,Explicit
3011,5,30,0,0,1,1005,Other,Exp3a,Explicit
3011,5,32,2,0,0,836,Self,Exp3a,Explicit
3011,5,33,1,1,1,930,Other,Exp3a,Explicit
3011,5,34,0,1,1,976,Self,Exp3a,Explicit
3011,5,35,0,1,1,792,Self,Exp3a,Explicit
3011,5,36,1,1,0,860,Self,Exp3a,Explicit
3011,5,37,1,0,0,741,Other,Exp3a,Explicit
3011,5,38,0,1,1,951,Other,Exp3a,Explicit
3011,5,39,1,1,1,965,Self,Exp3a,Explicit
3011,5,40,0,0,1,847,Self,Exp3a,Explicit
3011,5,41,0,1,1,993,Other,Exp3a,Explicit
3011,5,42,2,0,0,965,Other,Exp3a,Explicit
3011,5,43,0,0,0,953,Self,Exp3a,Explicit
3011,5,44,0,0,0,1004,Self,Exp3a,Explicit
3011,5,45,1,1,1,1056,Other,Exp3a,Explicit
3011,5,46,2,0,1,958,Other,Exp3a,Explicit
3011,5,47,1,0,1,956,Self,Exp3a,Explicit
3011,5,48,2,1,1,874,Self,Exp3a,Explicit
3011,5,49,1,0,1,959,Other,Exp3a,Explicit
3011,5,50,0,0,1,935,Other,Exp3a,Explicit
3011,5,51,2,1,1,883,Self,Exp3a,Explicit
3011,5,52,0,1,1,949,Other,Exp3a,Explicit
3011,5,53,2,1,1,943,Other,Exp3a,Explicit
3011,5,54,1,0,1,1040,Other,Exp3a,Explicit
3011,5,56,2,0,1,991,Self,Exp3a,Explicit
3011,5,57,1,0,1,909,Self,Exp3a,Explicit
3011,5,58,1,0,1,979,Self,Exp3a,Explicit
3011,5,59,0,1,1,901,Self,Exp3a,Explicit
3011,5,60,2,0,0,1005,Other,Exp3a,Explicit
3011,5,61,2,1,1,852,Other,Exp3a,Explicit
3011,5,62,0,1,0,894,Self,Exp3a,Explicit
3011,5,63,2,1,1,826,Self,Exp3a,Explicit
3011,5,64,1,1,1,968,Self,Exp3a,Explicit
3011,5,65,2,1,0,930,Self,Exp3a,Explicit
3011,5,66,1,1,1,822,Other,Exp3a,Explicit
3011,5,67,2,1,1,999,Other,Exp3a,Explicit
3011,5,69,0,0,0,887,Self,Exp3a,Explicit
3011,5,70,1,0,1,849,Other,Exp3a,Explicit
3011,5,71,2,1,1,785,Other,Exp3a,Explicit
3011,5,72,2,0,0,845,Other,Exp3a,Explicit
3011,5,73,0,0,1,910,Self,Exp3a,Explicit
3011,5,74,2,0,0,990,Other,Exp3a,Explicit
3011,5,76,1,0,1,1068,Self,Exp3a,Explicit
3011,5,77,1,1,1,806,Self,Exp3a,Explicit
3011,5,78,1,0,1,1034,Other,Exp3a,Explicit
3011,5,79,2,0,1,920,Self,Exp3a,Explicit
3011,5,81,0,1,1,857,Self,Exp3a,Explicit
3011,5,82,0,0,1,792,Other,Exp3a,Explicit
3011,5,83,2,0,0,834,Other,Exp3a,Explicit
3011,5,84,0,0,1,888,Other,Exp3a,Explicit
3011,5,85,0,1,1,708,Other,Exp3a,Explicit
3011,5,86,1,0,1,805,Other,Exp3a,Explicit
3011,5,87,1,0,1,789,Self,Exp3a,Explicit
3011,5,89,1,1,1,889,Self,Exp3a,Explicit
3011,5,91,0,1,0,821,Other,Exp3a,Explicit
3011,5,92,0,0,0,688,Other,Exp3a,Explicit
3011,5,93,2,1,1,816,Self,Exp3a,Explicit
3011,5,94,1,1,1,872,Other,Exp3a,Explicit
3011,5,95,2,0,1,930,Self,Exp3a,Explicit
3011,5,96,1,0,0,984,Other,Exp3a,Explicit
3011,5,97,0,1,1,750,Self,Exp3a,Explicit
3011,5,98,0,0,1,833,Self,Exp3a,Explicit
3011,5,99,2,0,1,1013,Other,Exp3a,Explicit
3011,5,100,1,1,1,809,Self,Exp3a,Explicit
3011,5,101,2,1,1,1033,Self,Exp3a,Explicit
3011,5,102,2,0,1,869,Self,Exp3a,Explicit
3011,5,104,2,1,1,886,Other,Exp3a,Explicit
3011,5,105,0,1,1,812,Other,Exp3a,Explicit
3011,5,106,0,0,1,996,Other,Exp3a,Explicit
3011,5,107,2,1,0,936,Self,Exp3a,Explicit
3011,5,108,1,0,1,764,Self,Exp3a,Explicit
3011,5,109,2,0,1,703,Other,Exp3a,Explicit
3011,5,110,1,1,1,976,Other,Exp3a,Explicit
3011,5,111,2,0,0,756,Self,Exp3a,Explicit
3011,5,112,1,0,1,896,Self,Exp3a,Explicit
3011,5,113,0,1,0,906,Other,Exp3a,Explicit
3011,5,114,0,1,1,804,Self,Exp3a,Explicit
3011,5,115,1,1,1,822,Other,Exp3a,Explicit
3011,5,116,1,1,1,805,Self,Exp3a,Explicit
3011,5,117,0,0,0,855,Self,Exp3a,Explicit
3011,5,118,0,0,0,869,Self,Exp3a,Explicit
3011,5,119,0,1,1,781,Other,Exp3a,Explicit
3011,5,120,0,0,1,945,Other,Exp3a,Explicit
3011,6,1,0,1,1,866,Self,Exp3a,Explicit
3011,6,2,1,0,1,981,Self,Exp3a,Explicit
3011,6,3,1,1,1,875,Other,Exp3a,Explicit
3011,6,4,0,0,1,1041,Self,Exp3a,Explicit
3011,6,5,0,1,1,968,Self,Exp3a,Explicit
3011,6,6,1,1,1,1006,Other,Exp3a,Explicit
3011,6,7,2,1,1,944,Self,Exp3a,Explicit
3011,6,8,0,0,1,924,Other,Exp3a,Explicit
3011,6,9,0,1,1,850,Other,Exp3a,Explicit
3011,6,10,0,0,1,1054,Other,Exp3a,Explicit
3011,6,11,2,0,1,1088,Other,Exp3a,Explicit
3011,6,12,2,0,1,1043,Self,Exp3a,Explicit
3011,6,13,2,1,1,809,Other,Exp3a,Explicit
3011,6,14,0,1,1,781,Other,Exp3a,Explicit
3011,6,15,1,0,1,901,Self,Exp3a,Explicit
3011,6,16,2,0,1,921,Self,Exp3a,Explicit
3011,6,17,2,0,1,944,Other,Exp3a,Explicit
3011,6,18,1,0,1,994,Other,Exp3a,Explicit
3011,6,19,2,0,1,958,Other,Exp3a,Explicit
3011,6,20,2,1,1,846,Other,Exp3a,Explicit
3011,6,21,0,0,0,764,Other,Exp3a,Explicit
3011,6,22,1,1,1,1038,Self,Exp3a,Explicit
3011,6,23,1,0,1,797,Self,Exp3a,Explicit
3011,6,25,2,1,1,845,Self,Exp3a,Explicit
3011,6,26,1,1,1,871,Self,Exp3a,Explicit
3011,6,27,2,1,1,1045,Self,Exp3a,Explicit
3011,6,28,2,0,1,867,Self,Exp3a,Explicit
3011,6,29,2,1,1,1059,Self,Exp3a,Explicit
3011,6,30,0,0,1,959,Other,Exp3a,Explicit
3011,6,31,1,0,1,1013,Other,Exp3a,Explicit
3011,6,32,2,0,1,885,Other,Exp3a,Explicit
3011,6,33,1,1,1,943,Other,Exp3a,Explicit
3011,6,34,0,1,1,937,Self,Exp3a,Explicit
3011,6,35,0,0,1,882,Other,Exp3a,Explicit
3011,6,36,2,0,0,916,Self,Exp3a,Explicit
3011,6,37,0,1,1,830,Self,Exp3a,Explicit
3011,6,38,1,1,1,1082,Self,Exp3a,Explicit
3011,6,39,0,0,1,816,Self,Exp3a,Explicit
3011,6,40,2,1,1,730,Other,Exp3a,Explicit
3011,6,41,1,1,1,825,Self,Exp3a,Explicit
3011,6,42,0,1,1,1061,Self,Exp3a,Explicit
3011,6,43,2,0,1,909,Other,Exp3a,Explicit
3011,6,44,1,1,1,1059,Other,Exp3a,Explicit
3011,6,45,2,1,1,1015,Self,Exp3a,Explicit
3011,6,46,1,1,1,1051,Other,Exp3a,Explicit
3011,6,47,1,0,1,756,Other,Exp3a,Explicit
3011,6,48,0,1,1,726,Other,Exp3a,Explicit
3011,6,49,0,0,0,984,Self,Exp3a,Explicit
3011,6,50,0,1,1,716,Other,Exp3a,Explicit
3011,6,51,1,0,0,968,Other,Exp3a,Explicit
3011,6,52,1,1,1,800,Self,Exp3a,Explicit
3011,6,53,2,0,0,973,Self,Exp3a,Explicit
3011,6,54,1,0,0,911,Other,Exp3a,Explicit
3011,6,55,1,0,1,969,Self,Exp3a,Explicit
3011,6,56,2,1,1,721,Other,Exp3a,Explicit
3011,6,57,0,0,1,866,Self,Exp3a,Explicit
3011,6,58,2,1,1,790,Other,Exp3a,Explicit
3011,6,59,0,0,0,953,Self,Exp3a,Explicit
3011,6,60,0,1,1,791,Other,Exp3a,Explicit
3011,6,61,0,0,1,785,Other,Exp3a,Explicit
3011,6,62,2,0,1,865,Other,Exp3a,Explicit
3011,6,63,0,1,1,983,Self,Exp3a,Explicit
3011,6,64,0,0,1,1095,Other,Exp3a,Explicit
3011,6,65,0,1,1,846,Other,Exp3a,Explicit
3011,6,66,0,0,1,1016,Self,Exp3a,Explicit
3011,6,67,2,0,1,1012,Self,Exp3a,Explicit
3011,6,68,2,0,1,792,Other,Exp3a,Explicit
3011,6,69,2,1,1,822,Other,Exp3a,Explicit
3011,6,70,0,1,1,702,Other,Exp3a,Explicit
3011,6,71,1,1,0,953,Self,Exp3a,Explicit
3011,6,72,1,1,1,765,Other,Exp3a,Explicit
3011,6,73,1,0,1,951,Other,Exp3a,Explicit
3011,6,74,0,1,1,971,Self,Exp3a,Explicit
3011,6,75,0,0,1,893,Self,Exp3a,Explicit
3011,6,76,1,0,0,881,Other,Exp3a,Explicit
3011,6,77,1,0,1,851,Other,Exp3a,Explicit
3011,6,78,2,1,1,684,Other,Exp3a,Explicit
3011,6,79,2,1,1,980,Self,Exp3a,Explicit
3011,6,80,0,1,1,706,Self,Exp3a,Explicit
3011,6,81,1,0,0,754,Other,Exp3a,Explicit
3011,6,82,2,1,1,916,Other,Exp3a,Explicit
3011,6,83,2,0,1,928,Other,Exp3a,Explicit
3011,6,84,1,0,1,1045,Self,Exp3a,Explicit
3011,6,85,2,0,0,722,Self,Exp3a,Explicit
3011,6,86,1,0,1,848,Self,Exp3a,Explicit
3011,6,87,0,0,1,878,Self,Exp3a,Explicit
3011,6,88,2,1,1,866,Self,Exp3a,Explicit
3011,6,90,0,1,1,884,Other,Exp3a,Explicit
3011,6,91,0,0,1,895,Other,Exp3a,Explicit
3011,6,92,0,0,1,959,Self,Exp3a,Explicit
3011,6,93,2,1,1,891,Self,Exp3a,Explicit
3011,6,94,1,0,0,989,Other,Exp3a,Explicit
3011,6,95,1,1,1,967,Self,Exp3a,Explicit
3011,6,96,2,0,1,900,Self,Exp3a,Explicit
3011,6,97,0,0,1,918,Other,Exp3a,Explicit
3011,6,98,2,0,1,768,Other,Exp3a,Explicit
3011,6,99,1,0,1,868,Self,Exp3a,Explicit
3011,6,100,2,1,1,880,Other,Exp3a,Explicit
3011,6,101,1,1,1,810,Self,Exp3a,Explicit
3011,6,102,2,0,1,792,Other,Exp3a,Explicit
3011,6,103,1,0,0,841,Self,Exp3a,Explicit
3011,6,104,0,0,0,711,Self,Exp3a,Explicit
3011,6,105,2,1,0,711,Self,Exp3a,Explicit
3011,6,106,1,0,1,767,Self,Exp3a,Explicit
3011,6,107,2,0,1,935,Self,Exp3a,Explicit
3011,6,108,2,1,1,864,Self,Exp3a,Explicit
3011,6,109,1,1,1,1002,Other,Exp3a,Explicit
3011,6,110,1,1,1,656,Self,Exp3a,Explicit
3011,6,111,2,0,1,1024,Self,Exp3a,Explicit
3011,6,112,1,1,1,880,Self,Exp3a,Explicit
3011,6,113,0,0,1,893,Other,Exp3a,Explicit
3011,6,114,0,1,1,825,Other,Exp3a,Explicit
3011,6,115,1,1,0,764,Other,Exp3a,Explicit
3011,6,116,0,1,1,484,Other,Exp3a,Explicit
3011,6,117,2,1,1,316,Other,Exp3a,Explicit
3011,6,118,0,1,1,808,Self,Exp3a,Explicit
3011,6,119,1,1,1,1014,Other,Exp3a,Explicit
3011,6,120,0,1,1,769,Self,Exp3a,Explicit
3012,1,1,1,1,1,1010,Self,Exp3a,Explicit
3012,1,2,2,1,1,654,Self,Exp3a,Explicit
3012,1,3,0,1,1,681,Other,Exp3a,Explicit
3012,1,4,0,1,0,677,Self,Exp3a,Explicit
3012,1,5,2,1,1,933,Other,Exp3a,Explicit
3012,1,6,1,0,1,766,Other,Exp3a,Explicit
3012,1,7,1,0,1,732,Other,Exp3a,Explicit
3012,1,9,1,1,1,792,Other,Exp3a,Explicit
3012,1,10,2,1,1,615,Other,Exp3a,Explicit
3012,1,11,1,0,1,858,Self,Exp3a,Explicit
3012,1,12,2,0,1,736,Self,Exp3a,Explicit
3012,1,13,2,1,1,702,Other,Exp3a,Explicit
3012,1,14,0,1,1,626,Self,Exp3a,Explicit
3012,1,15,0,0,1,629,Self,Exp3a,Explicit
3012,1,16,0,0,1,654,Self,Exp3a,Explicit
3012,1,17,2,1,1,721,Self,Exp3a,Explicit
3012,1,18,1,1,1,776,Self,Exp3a,Explicit
3012,1,19,2,1,1,822,Self,Exp3a,Explicit
3012,1,20,0,0,1,932,Self,Exp3a,Explicit
3012,1,21,2,0,1,749,Self,Exp3a,Explicit
3012,1,22,2,1,1,821,Other,Exp3a,Explicit
3012,1,23,2,0,1,740,Self,Exp3a,Explicit
3012,1,24,0,1,1,879,Other,Exp3a,Explicit
3012,1,25,2,0,1,920,Other,Exp3a,Explicit
3012,1,26,0,1,1,636,Other,Exp3a,Explicit
3012,1,27,0,0,1,607,Other,Exp3a,Explicit
3012,1,28,1,1,1,885,Self,Exp3a,Explicit
3012,1,29,0,1,1,801,Self,Exp3a,Explicit
3012,1,30,2,1,1,887,Self,Exp3a,Explicit
3012,1,31,1,0,1,792,Self,Exp3a,Explicit
3012,1,32,2,0,1,701,Self,Exp3a,Explicit
3012,1,33,2,0,1,813,Other,Exp3a,Explicit
3012,1,34,0,1,1,761,Self,Exp3a,Explicit
3012,1,35,2,1,1,1055,Self,Exp3a,Explicit
3012,1,36,1,0,0,1037,Self,Exp3a,Explicit
3012,1,37,0,0,0,753,Other,Exp3a,Explicit
3012,1,38,1,1,1,953,Other,Exp3a,Explicit
3012,1,39,1,1,1,720,Other,Exp3a,Explicit
3012,1,40,0,0,1,795,Self,Exp3a,Explicit
3012,1,41,2,0,1,953,Self,Exp3a,Explicit
3012,1,42,2,0,1,1052,Other,Exp3a,Explicit
3012,1,43,2,0,1,800,Other,Exp3a,Explicit
3012,1,44,2,1,1,902,Other,Exp3a,Explicit
3012,1,45,1,0,1,754,Other,Exp3a,Explicit
3012,1,46,1,1,0,800,Self,Exp3a,Explicit
3012,1,47,0,1,0,691,Self,Exp3a,Explicit
3012,1,48,1,0,1,652,Self,Exp3a,Explicit
3012,1,49,1,1,1,746,Self,Exp3a,Explicit
3012,1,50,0,1,1,707,Other,Exp3a,Explicit
3012,1,51,1,0,1,855,Self,Exp3a,Explicit
3012,1,52,0,0,0,701,Self,Exp3a,Explicit
3012,1,53,0,0,1,747,Other,Exp3a,Explicit
3012,1,54,1,0,1,737,Other,Exp3a,Explicit
3012,1,55,1,0,1,935,Other,Exp3a,Explicit
3012,1,56,1,1,1,624,Other,Exp3a,Explicit
3012,1,57,0,0,1,758,Other,Exp3a,Explicit
3012,1,59,2,0,1,1016,Other,Exp3a,Explicit
3012,1,60,1,1,1,651,Other,Exp3a,Explicit
3012,1,61,1,1,1,537,Other,Exp3a,Explicit
3012,1,62,0,0,1,693,Other,Exp3a,Explicit
3012,1,63,2,1,1,707,Other,Exp3a,Explicit
3012,1,64,0,1,1,609,Self,Exp3a,Explicit
3012,1,65,2,1,1,731,Self,Exp3a,Explicit
3012,1,66,2,0,1,665,Self,Exp3a,Explicit
3012,1,67,1,0,1,717,Self,Exp3a,Explicit
3012,1,68,0,0,1,680,Other,Exp3a,Explicit
3012,1,69,2,1,1,556,Self,Exp3a,Explicit
3012,1,70,0,0,1,751,Self,Exp3a,Explicit
3012,1,71,1,1,0,912,Self,Exp3a,Explicit
3012,1,72,1,0,1,766,Other,Exp3a,Explicit
3012,1,73,1,0,1,855,Other,Exp3a,Explicit
3012,1,74,1,0,1,685,Other,Exp3a,Explicit
3012,1,75,0,0,1,889,Self,Exp3a,Explicit
3012,1,76,2,0,1,978,Self,Exp3a,Explicit
3012,1,77,0,0,1,632,Self,Exp3a,Explicit
3012,1,78,0,1,1,803,Other,Exp3a,Explicit
3012,1,79,2,0,1,599,Self,Exp3a,Explicit
3012,1,80,0,1,1,602,Other,Exp3a,Explicit
3012,1,81,1,1,1,675,Other,Exp3a,Explicit
3012,1,82,1,1,0,572,Self,Exp3a,Explicit
3012,1,85,2,0,0,774,Other,Exp3a,Explicit
3012,1,86,1,0,1,828,Self,Exp3a,Explicit
3012,1,87,2,1,1,960,Other,Exp3a,Explicit
3012,1,88,2,1,1,601,Self,Exp3a,Explicit
3012,1,89,1,0,0,599,Other,Exp3a,Explicit
3012,1,90,0,1,1,797,Self,Exp3a,Explicit
3012,1,91,1,0,1,870,Self,Exp3a,Explicit
3012,1,92,0,0,1,863,Self,Exp3a,Explicit
3012,1,93,1,0,1,759,Other,Exp3a,Explicit
3012,1,94,1,1,0,776,Self,Exp3a,Explicit
3012,1,95,0,0,1,894,Self,Exp3a,Explicit
3012,1,96,1,1,1,636,Self,Exp3a,Explicit
3012,1,97,0,1,1,610,Self,Exp3a,Explicit
3012,1,98,2,0,1,907,Self,Exp3a,Explicit
3012,1,99,2,1,1,673,Self,Exp3a,Explicit
3012,1,100,1,0,1,666,Self,Exp3a,Explicit
3012,1,101,0,0,1,770,Other,Exp3a,Explicit
3012,1,102,1,1,1,827,Self,Exp3a,Explicit
3012,1,103,2,0,1,585,Other,Exp3a,Explicit
3012,1,104,1,1,1,650,Other,Exp3a,Explicit
3012,1,105,0,1,1,584,Other,Exp3a,Explicit
3012,1,106,2,0,1,548,Self,Exp3a,Explicit
3012,1,107,0,0,1,733,Other,Exp3a,Explicit
3012,1,108,1,1,1,552,Other,Exp3a,Explicit
3012,1,109,2,0,1,659,Other,Exp3a,Explicit
3012,1,110,2,1,1,895,Other,Exp3a,Explicit
3012,1,111,1,1,1,640,Other,Exp3a,Explicit
3012,1,112,2,1,1,750,Other,Exp3a,Explicit
3012,1,113,0,1,1,607,Self,Exp3a,Explicit
3012,1,114,2,0,0,738,Other,Exp3a,Explicit
3012,1,115,0,1,1,782,Other,Exp3a,Explicit
3012,1,116,1,0,0,982,Self,Exp3a,Explicit
3012,1,117,2,0,1,783,Other,Exp3a,Explicit
3012,1,118,0,1,1,619,Self,Exp3a,Explicit
3012,1,119,2,1,1,649,Self,Exp3a,Explicit
3012,1,120,2,1,1,652,Other,Exp3a,Explicit
3012,2,1,2,0,1,751,Self,Exp3a,Explicit
3012,2,2,2,0,1,958,Other,Exp3a,Explicit
3012,2,3,2,1,1,718,Other,Exp3a,Explicit
3012,2,4,0,1,1,618,Self,Exp3a,Explicit
3012,2,5,1,1,1,776,Self,Exp3a,Explicit
3012,2,6,0,1,1,572,Self,Exp3a,Explicit
3012,2,7,0,0,1,772,Self,Exp3a,Explicit
3012,2,8,0,1,1,624,Self,Exp3a,Explicit
3012,2,9,0,0,0,537,Self,Exp3a,Explicit
3012,2,10,1,0,1,820,Self,Exp3a,Explicit
3012,2,11,0,0,1,736,Other,Exp3a,Explicit
3012,2,12,1,1,1,555,Other,Exp3a,Explicit
3012,2,13,1,1,0,894,Self,Exp3a,Explicit
3012,2,14,0,1,1,717,Other,Exp3a,Explicit
3012,2,15,0,1,1,589,Other,Exp3a,Explicit
3012,2,16,2,1,1,797,Other,Exp3a,Explicit
3012,2,17,1,1,1,881,Self,Exp3a,Explicit
3012,2,18,1,0,1,673,Self,Exp3a,Explicit
3012,2,19,0,0,1,802,Self,Exp3a,Explicit
3012,2,20,0,0,1,710,Self,Exp3a,Explicit
3012,2,21,0,1,1,524,Self,Exp3a,Explicit
3012,2,22,1,0,1,799,Other,Exp3a,Explicit
3012,2,23,2,1,0,661,Self,Exp3a,Explicit
3012,2,24,0,1,1,699,Other,Exp3a,Explicit
3012,2,25,2,1,0,639,Self,Exp3a,Explicit
3012,2,26,2,1,1,762,Other,Exp3a,Explicit
3012,2,27,0,0,1,891,Other,Exp3a,Explicit
3012,2,28,1,1,1,684,Other,Exp3a,Explicit
3012,2,29,2,0,1,813,Other,Exp3a,Explicit
3012,2,30,2,1,1,624,Other,Exp3a,Explicit
3012,2,31,1,0,1,668,Self,Exp3a,Explicit
3012,2,32,2,0,1,802,Other,Exp3a,Explicit
3012,2,33,2,1,1,662,Other,Exp3a,Explicit
3012,2,34,2,0,1,668,Self,Exp3a,Explicit
3012,2,35,0,1,1,588,Self,Exp3a,Explicit
3012,2,36,0,0,1,749,Other,Exp3a,Explicit
3012,2,37,0,0,1,934,Self,Exp3a,Explicit
3012,2,38,2,0,1,767,Self,Exp3a,Explicit
3012,2,39,1,1,1,842,Self,Exp3a,Explicit
3012,2,40,1,1,1,736,Other,Exp3a,Explicit
3012,2,41,1,0,1,758,Other,Exp3a,Explicit
3012,2,42,1,0,1,831,Other,Exp3a,Explicit
3012,2,43,0,0,1,797,Other,Exp3a,Explicit
3012,2,44,2,1,1,612,Self,Exp3a,Explicit
3012,2,45,1,1,1,738,Other,Exp3a,Explicit
3012,2,46,2,0,1,765,Self,Exp3a,Explicit
3012,2,47,1,0,0,833,Self,Exp3a,Explicit
3012,2,48,0,0,1,700,Other,Exp3a,Explicit
3012,2,49,1,0,1,754,Other,Exp3a,Explicit
3012,2,50,0,1,1,711,Other,Exp3a,Explicit
3012,2,51,1,1,1,606,Other,Exp3a,Explicit
3012,2,52,1,0,1,782,Self,Exp3a,Explicit
3012,2,53,2,0,1,861,Self,Exp3a,Explicit
3012,2,54,1,1,1,691,Self,Exp3a,Explicit
3012,2,55,2,1,1,729,Self,Exp3a,Explicit
3012,2,56,2,1,0,612,Self,Exp3a,Explicit
3012,2,57,0,1,1,715,Other,Exp3a,Explicit
3012,2,58,2,0,1,846,Other,Exp3a,Explicit
3012,2,59,2,0,0,743,Other,Exp3a,Explicit
3012,2,60,1,0,1,677,Other,Exp3a,Explicit
3012,2,61,2,1,1,680,Self,Exp3a,Explicit
3012,2,62,0,0,1,713,Other,Exp3a,Explicit
3012,2,63,0,0,1,677,Self,Exp3a,Explicit
3012,2,64,2,1,1,835,Other,Exp3a,Explicit
3012,2,65,0,1,1,699,Self,Exp3a,Explicit
3012,2,66,2,0,1,681,Other,Exp3a,Explicit
3012,2,67,2,0,1,656,Self,Exp3a,Explicit
3012,2,68,1,0,1,707,Other,Exp3a,Explicit
3012,2,69,2,1,0,614,Self,Exp3a,Explicit
3012,2,70,1,1,1,770,Self,Exp3a,Explicit
3012,2,71,1,1,0,560,Other,Exp3a,Explicit
3012,2,72,0,1,1,558,Other,Exp3a,Explicit
3012,2,73,0,1,1,620,Other,Exp3a,Explicit
3012,2,74,2,1,1,714,Self,Exp3a,Explicit
3012,2,75,2,0,1,710,Self,Exp3a,Explicit
3012,2,76,1,1,0,737,Self,Exp3a,Explicit
3012,2,77,1,1,1,632,Other,Exp3a,Explicit
3012,2,78,2,0,1,710,Other,Exp3a,Explicit
3012,2,79,0,0,0,846,Self,Exp3a,Explicit
3012,2,80,1,1,1,799,Self,Exp3a,Explicit
3012,2,81,2,1,1,822,Other,Exp3a,Explicit
3012,2,82,0,0,1,808,Self,Exp3a,Explicit
3012,2,83,2,0,1,747,Self,Exp3a,Explicit
3012,2,84,0,0,1,668,Other,Exp3a,Explicit
3012,2,85,1,0,1,704,Self,Exp3a,Explicit
3012,2,86,0,0,1,595,Other,Exp3a,Explicit
3012,2,87,0,1,1,614,Self,Exp3a,Explicit
3012,2,88,1,1,1,687,Self,Exp3a,Explicit
3012,2,89,0,1,1,605,Self,Exp3a,Explicit
3012,2,90,0,1,1,651,Other,Exp3a,Explicit
3012,2,91,2,0,1,698,Other,Exp3a,Explicit
3012,2,92,1,0,0,784,Self,Exp3a,Explicit
3012,2,93,2,1,1,971,Other,Exp3a,Explicit
3012,2,94,1,1,1,588,Other,Exp3a,Explicit
3012,2,95,1,0,1,621,Other,Exp3a,Explicit
3012,2,96,1,0,1,840,Other,Exp3a,Explicit
3012,2,97,0,1,1,700,Self,Exp3a,Explicit
3012,2,98,2,1,1,647,Other,Exp3a,Explicit
3012,2,99,0,0,1,747,Other,Exp3a,Explicit
3012,2,100,0,0,1,937,Self,Exp3a,Explicit
3012,2,101,0,0,1,802,Self,Exp3a,Explicit
3012,2,102,0,0,1,733,Other,Exp3a,Explicit
3012,2,103,1,0,1,787,Other,Exp3a,Explicit
3012,2,104,1,0,1,583,Other,Exp3a,Explicit
3012,2,105,2,0,1,730,Self,Exp3a,Explicit
3012,2,106,2,0,1,875,Other,Exp3a,Explicit
3012,2,107,1,1,1,812,Other,Exp3a,Explicit
3012,2,108,2,0,0,765,Self,Exp3a,Explicit
3012,2,109,0,1,1,619,Self,Exp3a,Explicit
3012,2,110,0,1,0,857,Other,Exp3a,Explicit
3012,2,111,2,1,1,783,Other,Exp3a,Explicit
3012,2,112,2,1,1,962,Self,Exp3a,Explicit
3012,2,113,1,0,1,816,Self,Exp3a,Explicit
3012,2,114,1,1,1,873,Other,Exp3a,Explicit
3012,2,115,2,0,1,780,Other,Exp3a,Explicit
3012,2,116,0,1,1,647,Other,Exp3a,Explicit
3012,2,117,1,0,1,805,Self,Exp3a,Explicit
3012,2,119,1,0,1,743,Self,Exp3a,Explicit
3012,2,120,2,1,1,640,Self,Exp3a,Explicit
3012,3,1,2,1,1,863,Self,Exp3a,Explicit
3012,3,2,1,0,1,711,Other,Exp3a,Explicit
3012,3,3,2,0,0,1051,Other,Exp3a,Explicit
3012,3,4,1,1,0,875,Self,Exp3a,Explicit
3012,3,5,0,1,1,719,Self,Exp3a,Explicit
3012,3,6,0,1,1,624,Self,Exp3a,Explicit
3012,3,7,0,0,1,947,Other,Exp3a,Explicit
3012,3,8,2,0,1,849,Other,Exp3a,Explicit
3012,3,9,1,0,1,886,Self,Exp3a,Explicit
3012,3,10,2,0,1,773,Self,Exp3a,Explicit
3012,3,11,0,0,1,747,Other,Exp3a,Explicit
3012,3,12,2,1,1,764,Other,Exp3a,Explicit
3012,3,13,1,0,1,807,Other,Exp3a,Explicit
3012,3,14,2,1,1,728,Other,Exp3a,Explicit
3012,3,15,0,0,0,673,Self,Exp3a,Explicit
3012,3,16,1,0,1,1039,Other,Exp3a,Explicit
3012,3,17,2,0,1,749,Self,Exp3a,Explicit
3012,3,18,0,0,1,728,Self,Exp3a,Explicit
3012,3,19,1,1,1,663,Self,Exp3a,Explicit
3012,3,20,0,1,1,690,Other,Exp3a,Explicit
3012,3,21,1,1,1,760,Other,Exp3a,Explicit
3012,3,22,2,1,1,676,Self,Exp3a,Explicit
3012,3,23,2,1,0,772,Self,Exp3a,Explicit
3012,3,24,0,0,1,640,Self,Exp3a,Explicit
3012,3,25,0,1,1,753,Other,Exp3a,Explicit
3012,3,26,0,1,1,612,Other,Exp3a,Explicit
3012,3,28,2,1,1,766,Other,Exp3a,Explicit
3012,3,29,2,1,1,673,Self,Exp3a,Explicit
3012,3,30,1,1,1,653,Self,Exp3a,Explicit
3012,3,31,1,0,1,651,Self,Exp3a,Explicit
3012,3,32,1,0,1,929,Other,Exp3a,Explicit
3012,3,33,0,1,1,572,Other,Exp3a,Explicit
3012,3,34,0,0,1,712,Self,Exp3a,Explicit
3012,3,35,1,1,1,734,Other,Exp3a,Explicit
3012,3,36,1,0,1,793,Self,Exp3a,Explicit
3012,3,37,2,0,1,711,Other,Exp3a,Explicit
3012,3,38,1,1,1,579,Other,Exp3a,Explicit
3012,3,39,0,1,1,654,Other,Exp3a,Explicit
3012,3,40,1,1,1,594,Other,Exp3a,Explicit
3012,3,41,2,1,1,824,Other,Exp3a,Explicit
3012,3,42,0,0,1,606,Self,Exp3a,Explicit
3012,3,43,1,0,1,963,Self,Exp3a,Explicit
3012,3,44,0,1,1,564,Self,Exp3a,Explicit
3012,3,45,1,1,1,666,Self,Exp3a,Explicit
3012,3,46,0,0,1,609,Other,Exp3a,Explicit
3012,3,47,1,0,1,721,Self,Exp3a,Explicit
3012,3,48,1,0,1,786,Other,Exp3a,Explicit
3012,3,49,1,1,1,806,Self,Exp3a,Explicit
3012,3,50,0,1,1,612,Self,Exp3a,Explicit
3012,3,51,2,0,1,780,Self,Exp3a,Explicit
3012,3,52,2,0,1,971,Self,Exp3a,Explicit
3012,3,53,2,1,1,619,Other,Exp3a,Explicit
3012,3,54,2,0,1,650,Other,Exp3a,Explicit
3012,3,55,2,1,1,752,Self,Exp3a,Explicit
3012,3,56,0,0,1,729,Other,Exp3a,Explicit
3012,3,57,0,1,1,615,Self,Exp3a,Explicit
3012,3,58,1,1,1,730,Other,Exp3a,Explicit
3012,3,59,0,0,1,651,Other,Exp3a,Explicit
3012,3,60,2,0,1,969,Other,Exp3a,Explicit
3012,3,61,0,1,1,687,Other,Exp3a,Explicit
3012,3,62,2,0,1,926,Other,Exp3a,Explicit
3012,3,63,1,1,1,588,Other,Exp3a,Explicit
3012,3,64,2,1,1,674,Self,Exp3a,Explicit
3012,3,65,1,1,1,584,Self,Exp3a,Explicit
3012,3,66,1,0,0,662,Self,Exp3a,Explicit
3012,3,67,2,0,1,708,Self,Exp3a,Explicit
3012,3,68,2,1,1,701,Other,Exp3a,Explicit
3012,3,69,1,1,1,761,Self,Exp3a,Explicit
3012,3,70,2,0,1,607,Self,Exp3a,Explicit
3012,3,71,0,0,1,864,Other,Exp3a,Explicit
3012,3,72,2,1,1,776,Other,Exp3a,Explicit
3012,3,73,0,0,1,729,Other,Exp3a,Explicit
3012,3,74,1,0,1,761,Self,Exp3a,Explicit
3012,3,75,2,0,0,1029,Self,Exp3a,Explicit
3012,3,76,1,0,1,749,Self,Exp3a,Explicit
3012,3,77,1,0,1,729,Other,Exp3a,Explicit
3012,3,80,0,0,0,721,Self,Exp3a,Explicit
3012,3,81,0,0,1,753,Other,Exp3a,Explicit
3012,3,82,1,1,1,645,Other,Exp3a,Explicit
3012,3,83,1,1,1,838,Other,Exp3a,Explicit
3012,3,84,2,0,1,926,Other,Exp3a,Explicit
3012,3,85,2,1,1,658,Self,Exp3a,Explicit
3012,3,86,1,0,0,656,Other,Exp3a,Explicit
3012,3,87,1,0,1,644,Other,Exp3a,Explicit
3012,3,88,0,1,1,623,Self,Exp3a,Explicit
3012,3,89,0,1,1,578,Self,Exp3a,Explicit
3012,3,90,2,1,0,566,Self,Exp3a,Explicit
3012,3,91,2,1,1,711,Other,Exp3a,Explicit
3012,3,92,0,1,1,671,Self,Exp3a,Explicit
3012,3,93,0,1,1,675,Other,Exp3a,Explicit
3012,3,94,0,0,1,790,Self,Exp3a,Explicit
3012,3,95,0,0,1,586,Other,Exp3a,Explicit
3012,3,96,0,0,1,752,Self,Exp3a,Explicit
3012,3,97,0,1,0,790,Other,Exp3a,Explicit
3012,3,98,0,1,1,546,Other,Exp3a,Explicit
3012,3,99,2,0,1,781,Other,Exp3a,Explicit
3012,3,100,2,1,1,654,Self,Exp3a,Explicit
3012,3,101,0,1,0,740,Other,Exp3a,Explicit
3012,3,102,1,0,1,864,Self,Exp3a,Explicit
3012,3,103,2,0,1,792,Other,Exp3a,Explicit
3012,3,104,1,1,1,676,Self,Exp3a,Explicit
3012,3,105,1,1,1,554,Self,Exp3a,Explicit
3012,3,106,2,1,1,645,Other,Exp3a,Explicit
3012,3,107,2,0,1,739,Self,Exp3a,Explicit
3012,3,108,2,0,1,806,Other,Exp3a,Explicit
3012,3,109,1,1,1,708,Self,Exp3a,Explicit
3012,3,110,1,1,1,792,Other,Exp3a,Explicit
3012,3,111,2,1,1,670,Other,Exp3a,Explicit
3012,3,112,1,0,1,727,Other,Exp3a,Explicit
3012,3,113,2,1,1,850,Self,Exp3a,Explicit
3012,3,114,1,0,1,1070,Self,Exp3a,Explicit
3012,3,115,0,0,1,799,Self,Exp3a,Explicit
3012,3,116,0,0,1,698,Other,Exp3a,Explicit
3012,3,117,0,1,1,648,Self,Exp3a,Explicit
3012,3,118,0,0,1,713,Self,Exp3a,Explicit
3012,3,119,0,1,1,793,Self,Exp3a,Explicit
3012,3,120,1,1,1,730,Other,Exp3a,Explicit
3012,4,1,1,1,1,935,Self,Exp3a,Explicit
3012,4,2,1,1,1,728,Other,Exp3a,Explicit
3012,4,3,2,1,1,742,Self,Exp3a,Explicit
3012,4,4,1,1,1,612,Other,Exp3a,Explicit
3012,4,5,0,1,1,591,Self,Exp3a,Explicit
3012,4,6,2,0,1,603,Other,Exp3a,Explicit
3012,4,7,1,0,1,699,Other,Exp3a,Explicit
3012,4,8,2,0,1,758,Other,Exp3a,Explicit
3012,4,9,0,0,1,644,Other,Exp3a,Explicit
3012,4,10,0,1,1,869,Other,Exp3a,Explicit
3012,4,11,2,1,1,763,Self,Exp3a,Explicit
3012,4,12,0,1,1,689,Self,Exp3a,Explicit
3012,4,13,0,0,1,642,Other,Exp3a,Explicit
3012,4,14,0,1,1,536,Self,Exp3a,Explicit
3012,4,15,0,0,1,673,Self,Exp3a,Explicit
3012,4,16,2,1,1,594,Self,Exp3a,Explicit
3012,4,17,1,1,1,776,Self,Exp3a,Explicit
3012,4,18,1,0,1,649,Other,Exp3a,Explicit
3012,4,19,0,0,0,588,Self,Exp3a,Explicit
3012,4,20,1,1,0,565,Other,Exp3a,Explicit
3012,4,21,0,0,1,803,Other,Exp3a,Explicit
3012,4,22,2,1,1,1012,Other,Exp3a,Explicit
3012,4,23,2,0,1,658,Self,Exp3a,Explicit
3012,4,24,0,0,1,635,Self,Exp3a,Explicit
3012,4,25,2,0,1,732,Self,Exp3a,Explicit
3012,4,26,2,0,1,650,Self,Exp3a,Explicit
3012,4,28,0,0,1,812,Other,Exp3a,Explicit
3012,4,29,2,0,1,847,Other,Exp3a,Explicit
3012,4,30,1,0,1,637,Other,Exp3a,Explicit
3012,4,31,2,1,1,763,Self,Exp3a,Explicit
3012,4,32,2,1,1,794,Self,Exp3a,Explicit
3012,4,33,2,0,1,685,Other,Exp3a,Explicit
3012,4,34,1,0,1,665,Other,Exp3a,Explicit
3012,4,35,2,0,1,943,Self,Exp3a,Explicit
3012,4,36,1,0,1,730,Self,Exp3a,Explicit
3012,4,37,1,0,1,659,Self,Exp3a,Explicit
3012,4,38,1,1,1,542,Other,Exp3a,Explicit
3012,4,39,2,1,1,572,Other,Exp3a,Explicit
3012,4,40,0,1,1,567,Other,Exp3a,Explicit
3012,4,41,1,1,1,834,Self,Exp3a,Explicit
3012,4,42,1,0,0,534,Self,Exp3a,Explicit
3012,4,43,2,0,1,724,Other,Exp3a,Explicit
3012,4,44,0,0,1,621,Other,Exp3a,Explicit
3012,4,45,0,1,1,1022,Other,Exp3a,Explicit
3012,4,46,1,0,1,884,Self,Exp3a,Explicit
3012,4,47,2,1,1,821,Other,Exp3a,Explicit
3012,4,48,2,1,1,544,Other,Exp3a,Explicit
3012,4,49,1,1,1,676,Self,Exp3a,Explicit
3012,4,50,1,1,1,546,Self,Exp3a,Explicit
3012,4,51,0,1,1,579,Other,Exp3a,Explicit
3012,4,52,1,0,1,750,Self,Exp3a,Explicit
3012,4,53,0,1,1,660,Self,Exp3a,Explicit
3012,4,54,1,1,1,586,Other,Exp3a,Explicit
3012,4,55,0,0,1,678,Self,Exp3a,Explicit
3012,4,56,0,1,1,655,Self,Exp3a,Explicit
3012,4,57,1,0,0,685,Other,Exp3a,Explicit
3012,4,58,0,1,1,766,Other,Exp3a,Explicit
3012,4,59,0,0,1,620,Self,Exp3a,Explicit
3012,4,60,2,1,1,762,Other,Exp3a,Explicit
3012,4,61,0,1,1,670,Self,Exp3a,Explicit
3012,4,62,0,0,1,713,Other,Exp3a,Explicit
3012,4,63,2,0,1,842,Other,Exp3a,Explicit
3012,4,64,1,1,1,794,Self,Exp3a,Explicit
3012,4,65,0,0,1,675,Self,Exp3a,Explicit
3012,4,66,1,0,1,681,Other,Exp3a,Explicit
3012,4,67,1,0,1,658,Other,Exp3a,Explicit
3012,4,68,0,1,1,731,Other,Exp3a,Explicit
3012,4,69,1,0,1,729,Self,Exp3a,Explicit
3012,4,70,2,1,1,570,Other,Exp3a,Explicit
3012,4,71,0,1,1,612,Self,Exp3a,Explicit
3012,4,72,2,1,1,744,Self,Exp3a,Explicit
3012,4,73,2,0,1,654,Self,Exp3a,Explicit
3012,4,74,0,0,1,844,Self,Exp3a,Explicit
3012,4,75,2,0,1,618,Self,Exp3a,Explicit
3012,4,76,2,0,1,659,Self,Exp3a,Explicit
3012,4,77,2,0,1,572,Self,Exp3a,Explicit
3012,4,78,0,0,0,684,Self,Exp3a,Explicit
3012,4,79,0,1,1,661,Self,Exp3a,Explicit
3012,4,80,0,1,1,737,Other,Exp3a,Explicit
3012,4,81,1,0,1,892,Self,Exp3a,Explicit
3012,4,82,1,0,1,925,Self,Exp3a,Explicit
3012,4,83,1,1,1,752,Other,Exp3a,Explicit
3012,4,84,1,1,1,644,Other,Exp3a,Explicit
3012,4,85,1,0,1,698,Self,Exp3a,Explicit
3012,4,86,0,1,1,939,Other,Exp3a,Explicit
3012,4,87,2,0,1,883,Self,Exp3a,Explicit
3012,4,88,2,1,1,580,Other,Exp3a,Explicit
3012,4,89,1,0,1,656,Other,Exp3a,Explicit
3012,4,90,2,1,1,688,Self,Exp3a,Explicit
3012,4,91,2,1,0,889,Other,Exp3a,Explicit
3012,4,92,2,0,1,898,Other,Exp3a,Explicit
3012,4,93,0,0,1,667,Other,Exp3a,Explicit
3012,4,94,1,1,1,575,Other,Exp3a,Explicit
3012,4,95,2,1,1,666,Self,Exp3a,Explicit
3012,4,96,0,0,1,670,Other,Exp3a,Explicit
3012,4,97,1,0,1,721,Self,Exp3a,Explicit
3012,4,98,1,1,1,671,Self,Exp3a,Explicit
3012,4,99,1,0,1,664,Other,Exp3a,Explicit
3012,4,100,1,1,1,878,Self,Exp3a,Explicit
3012,4,101,2,0,1,719,Other,Exp3a,Explicit
3012,4,102,2,0,1,664,Other,Exp3a,Explicit
3012,4,103,0,0,1,819,Other,Exp3a,Explicit
3012,4,104,0,0,1,900,Other,Exp3a,Explicit
3012,4,105,2,1,1,633,Self,Exp3a,Explicit
3012,4,106,0,1,1,770,Other,Exp3a,Explicit
3012,4,107,1,1,1,779,Other,Exp3a,Explicit
3012,4,108,0,0,1,694,Self,Exp3a,Explicit
3012,4,109,0,0,1,663,Self,Exp3a,Explicit
3012,4,110,2,1,1,664,Other,Exp3a,Explicit
3012,4,111,2,1,1,577,Other,Exp3a,Explicit
3012,4,112,1,1,1,623,Other,Exp3a,Explicit
3012,4,113,1,0,1,650,Other,Exp3a,Explicit
3012,4,114,0,1,1,606,Other,Exp3a,Explicit
3012,4,115,1,1,1,708,Self,Exp3a,Explicit
3012,4,116,2,0,1,826,Other,Exp3a,Explicit
3012,4,117,0,1,1,731,Self,Exp3a,Explicit
3012,4,119,1,1,1,820,Self,Exp3a,Explicit
3012,4,120,2,1,1,696,Self,Exp3a,Explicit
3012,5,1,0,1,1,607,Self,Exp3a,Explicit
3012,5,2,1,0,1,680,Self,Exp3a,Explicit
3012,5,3,0,0,1,803,Self,Exp3a,Explicit
3012,5,4,2,1,1,676,Self,Exp3a,Explicit
3012,5,5,2,1,1,757,Other,Exp3a,Explicit
3012,5,6,0,0,1,659,Self,Exp3a,Explicit
3012,5,7,2,0,1,840,Self,Exp3a,Explicit
3012,5,8,2,0,1,737,Other,Exp3a,Explicit
3012,5,9,0,0,1,628,Self,Exp3a,Explicit
3012,5,10,1,0,1,712,Self,Exp3a,Explicit
3012,5,11,2,0,1,942,Other,Exp3a,Explicit
3012,5,12,0,0,1,748,Self,Exp3a,Explicit
3012,5,13,1,0,1,914,Self,Exp3a,Explicit
3012,5,14,0,0,1,574,Other,Exp3a,Explicit
3012,5,15,0,1,1,780,Other,Exp3a,Explicit
3012,5,16,1,1,1,730,Other,Exp3a,Explicit
3012,5,17,1,0,1,723,Other,Exp3a,Explicit
3012,5,18,0,1,1,750,Self,Exp3a,Explicit
3012,5,19,0,0,1,706,Self,Exp3a,Explicit
3012,5,20,1,1,1,704,Self,Exp3a,Explicit
3012,5,21,2,0,1,651,Self,Exp3a,Explicit
3012,5,22,0,0,1,711,Other,Exp3a,Explicit
3012,5,23,2,1,0,967,Self,Exp3a,Explicit
3012,5,24,1,0,1,939,Other,Exp3a,Explicit
3012,5,25,1,1,1,801,Self,Exp3a,Explicit
3012,5,26,0,0,0,692,Other,Exp3a,Explicit
3012,5,27,0,0,1,592,Other,Exp3a,Explicit
3012,5,28,1,1,1,702,Other,Exp3a,Explicit
3012,5,29,0,1,1,820,Other,Exp3a,Explicit
3012,5,30,0,1,1,600,Self,Exp3a,Explicit
3012,5,31,2,0,1,728,Self,Exp3a,Explicit
3012,5,32,0,0,1,735,Other,Exp3a,Explicit
3012,5,33,1,1,1,589,Other,Exp3a,Explicit
3012,5,34,2,0,1,670,Other,Exp3a,Explicit
3012,5,35,1,0,1,662,Other,Exp3a,Explicit
3012,5,36,2,1,1,682,Other,Exp3a,Explicit
3012,5,37,0,1,1,651,Self,Exp3a,Explicit
3012,5,38,2,0,1,892,Other,Exp3a,Explicit
3012,5,39,1,0,1,710,Self,Exp3a,Explicit
3012,5,40,0,1,1,655,Self,Exp3a,Explicit
3012,5,41,2,1,1,773,Self,Exp3a,Explicit
3012,5,42,2,1,1,779,Other,Exp3a,Explicit
3012,5,43,0,1,1,647,Other,Exp3a,Explicit
3012,5,44,1,0,1,781,Self,Exp3a,Explicit
3012,5,45,0,1,1,694,Other,Exp3a,Explicit
3012,5,46,2,0,1,721,Self,Exp3a,Explicit
3012,5,47,1,0,1,714,Other,Exp3a,Explicit
3012,5,48,2,1,1,704,Self,Exp3a,Explicit
3012,5,49,1,1,1,747,Other,Exp3a,Explicit
3012,5,51,1,1,1,666,Self,Exp3a,Explicit
3012,5,52,1,0,1,736,Other,Exp3a,Explicit
3012,5,53,2,0,1,857,Other,Exp3a,Explicit
3012,5,54,2,1,1,695,Other,Exp3a,Explicit
3012,5,55,0,1,1,621,Other,Exp3a,Explicit
3012,5,56,2,1,1,734,Self,Exp3a,Explicit
3012,5,57,2,1,1,671,Other,Exp3a,Explicit
3012,5,58,2,0,1,613,Self,Exp3a,Explicit
3012,5,59,1,1,1,712,Other,Exp3a,Explicit
3012,5,60,1,1,0,665,Self,Exp3a,Explicit
3012,5,61,0,1,1,799,Self,Exp3a,Explicit
3012,5,62,1,0,1,792,Self,Exp3a,Explicit
3012,5,63,2,1,1,585,Self,Exp3a,Explicit
3012,5,64,2,0,1,653,Other,Exp3a,Explicit
3012,5,65,2,0,1,752,Other,Exp3a,Explicit
3012,5,66,0,0,1,734,Other,Exp3a,Explicit
3012,5,67,1,0,1,658,Self,Exp3a,Explicit
3012,5,68,0,0,1,693,Self,Exp3a,Explicit
3012,5,69,1,1,1,667,Self,Exp3a,Explicit
3012,5,70,1,1,1,665,Other,Exp3a,Explicit
3012,5,72,2,1,1,890,Self,Exp3a,Explicit
3012,5,73,2,0,1,773,Self,Exp3a,Explicit
3012,5,74,1,0,1,795,Other,Exp3a,Explicit
3012,5,75,2,1,1,770,Self,Exp3a,Explicit
3012,5,76,2,1,1,640,Other,Exp3a,Explicit
3012,5,77,0,0,1,696,Self,Exp3a,Explicit
3012,5,78,0,0,1,937,Other,Exp3a,Explicit
3012,5,79,0,1,1,962,Self,Exp3a,Explicit
3012,5,80,2,1,1,797,Other,Exp3a,Explicit
3012,5,81,1,0,1,740,Other,Exp3a,Explicit
3012,5,82,0,1,0,706,Other,Exp3a,Explicit
3012,5,83,0,1,1,968,Other,Exp3a,Explicit
3012,5,84,1,1,1,622,Self,Exp3a,Explicit
3012,5,85,1,0,1,729,Other,Exp3a,Explicit
3012,5,86,0,0,1,840,Self,Exp3a,Explicit
3012,5,87,2,0,1,811,Other,Exp3a,Explicit
3012,5,88,1,1,1,686,Other,Exp3a,Explicit
3012,5,89,1,1,1,879,Self,Exp3a,Explicit
3012,5,90,2,1,1,779,Other,Exp3a,Explicit
3012,5,91,0,0,1,707,Other,Exp3a,Explicit
3012,5,92,1,1,1,676,Other,Exp3a,Explicit
3012,5,93,2,0,1,730,Self,Exp3a,Explicit
3012,5,94,0,1,1,737,Self,Exp3a,Explicit
3012,5,95,0,0,1,716,Self,Exp3a,Explicit
3012,5,96,1,1,1,639,Other,Exp3a,Explicit
3012,5,97,0,0,1,670,Other,Exp3a,Explicit
3012,5,98,2,1,1,641,Other,Exp3a,Explicit
3012,5,99,2,1,1,703,Other,Exp3a,Explicit
3012,5,100,0,1,1,651,Self,Exp3a,Explicit
3012,5,101,1,1,1,894,Self,Exp3a,Explicit
3012,5,102,2,1,1,628,Self,Exp3a,Explicit
3012,5,103,0,1,1,605,Other,Exp3a,Explicit
3012,5,104,0,1,1,778,Other,Exp3a,Explicit
3012,5,105,1,1,1,582,Other,Exp3a,Explicit
3012,5,106,1,0,1,753,Self,Exp3a,Explicit
3012,5,107,1,1,1,693,Self,Exp3a,Explicit
3012,5,108,2,0,0,597,Self,Exp3a,Explicit
3012,5,109,0,1,1,876,Other,Exp3a,Explicit
3012,5,110,1,0,1,903,Other,Exp3a,Explicit
3012,5,111,1,0,1,930,Self,Exp3a,Explicit
3012,5,112,2,0,1,726,Self,Exp3a,Explicit
3012,5,113,2,0,1,687,Self,Exp3a,Explicit
3012,5,114,2,1,1,658,Self,Exp3a,Explicit
3012,5,115,1,0,1,899,Self,Exp3a,Explicit
3012,5,116,0,1,1,585,Self,Exp3a,Explicit
3012,5,117,1,0,1,735,Other,Exp3a,Explicit
3012,5,118,2,0,1,800,Other,Exp3a,Explicit
3012,5,119,2,0,1,721,Other,Exp3a,Explicit
3012,5,120,0,0,1,834,Other,Exp3a,Explicit
3012,6,1,1,0,1,1008,Self,Exp3a,Explicit
3012,6,2,2,1,1,668,Self,Exp3a,Explicit
3012,6,3,0,0,1,630,Self,Exp3a,Explicit
3012,6,4,2,1,1,663,Self,Exp3a,Explicit
3012,6,5,1,1,1,608,Self,Exp3a,Explicit
3012,6,6,0,0,1,723,Self,Exp3a,Explicit
3012,6,7,0,0,1,780,Self,Exp3a,Explicit
3012,6,8,0,1,1,845,Other,Exp3a,Explicit
3012,6,9,0,1,1,701,Self,Exp3a,Explicit
3012,6,10,2,0,1,620,Self,Exp3a,Explicit
3012,6,11,0,0,1,644,Other,Exp3a,Explicit
3012,6,12,2,0,1,624,Other,Exp3a,Explicit
3012,6,13,1,1,1,617,Other,Exp3a,Explicit
3012,6,14,2,0,1,588,Other,Exp3a,Explicit
3012,6,15,2,0,1,616,Self,Exp3a,Explicit
3012,6,16,0,0,1,656,Self,Exp3a,Explicit
3012,6,17,0,0,1,676,Other,Exp3a,Explicit
3012,6,18,2,0,1,573,Other,Exp3a,Explicit
3012,6,19,2,1,1,891,Other,Exp3a,Explicit
3012,6,20,0,1,1,638,Self,Exp3a,Explicit
3012,6,21,0,0,1,626,Other,Exp3a,Explicit
3012,6,22,2,0,1,864,Self,Exp3a,Explicit
3012,6,23,0,0,0,611,Self,Exp3a,Explicit
3012,6,24,2,1,1,684,Other,Exp3a,Explicit
3012,6,25,0,1,1,770,Other,Exp3a,Explicit
3012,6,26,1,1,1,702,Self,Exp3a,Explicit
3012,6,27,0,1,1,700,Other,Exp3a,Explicit
3012,6,28,1,1,1,613,Self,Exp3a,Explicit
3012,6,29,1,1,1,589,Other,Exp3a,Explicit
3012,6,30,1,1,1,561,Other,Exp3a,Explicit
3012,6,31,1,0,1,711,Other,Exp3a,Explicit
3012,6,32,2,1,1,914,Self,Exp3a,Explicit
3012,6,33,1,0,1,681,Other,Exp3a,Explicit
3012,6,34,0,1,1,777,Other,Exp3a,Explicit
3012,6,35,1,1,1,720,Other,Exp3a,Explicit
3012,6,36,1,0,0,794,Self,Exp3a,Explicit
3012,6,37,2,0,0,603,Other,Exp3a,Explicit
3012,6,38,1,1,1,670,Self,Exp3a,Explicit
3012,6,39,0,1,1,692,Other,Exp3a,Explicit
3012,6,40,2,0,1,717,Self,Exp3a,Explicit
3012,6,41,1,0,1,619,Self,Exp3a,Explicit
3012,6,42,2,1,1,775,Self,Exp3a,Explicit
3012,6,43,1,0,1,709,Self,Exp3a,Explicit
3012,6,44,2,0,1,710,Other,Exp3a,Explicit
3012,6,45,1,0,1,681,Other,Exp3a,Explicit
3012,6,46,1,0,1,773,Other,Exp3a,Explicit
3012,6,47,2,1,1,787,Other,Exp3a,Explicit
3012,6,48,1,0,1,758,Self,Exp3a,Explicit
3012,6,49,2,1,1,842,Other,Exp3a,Explicit
3012,6,50,2,1,0,795,Self,Exp3a,Explicit
3012,6,51,1,0,1,881,Other,Exp3a,Explicit
3012,6,52,1,1,1,647,Self,Exp3a,Explicit
3012,6,53,2,0,1,752,Self,Exp3a,Explicit
3012,6,54,0,1,1,662,Self,Exp3a,Explicit
3012,6,55,0,0,1,665,Other,Exp3a,Explicit
3012,6,56,0,1,1,717,Self,Exp3a,Explicit
3012,6,57,2,1,1,680,Other,Exp3a,Explicit
3012,6,58,0,1,1,732,Self,Exp3a,Explicit
3012,6,59,1,1,1,767,Other,Exp3a,Explicit
3012,6,60,0,0,1,680,Other,Exp3a,Explicit
3012,6,61,1,1,1,675,Self,Exp3a,Explicit
3012,6,62,2,0,0,620,Other,Exp3a,Explicit
3012,6,63,2,1,1,736,Other,Exp3a,Explicit
3012,6,64,2,0,1,814,Self,Exp3a,Explicit
3012,6,65,0,0,0,646,Self,Exp3a,Explicit
3012,6,66,1,0,1,837,Other,Exp3a,Explicit
3012,6,67,1,0,1,925,Self,Exp3a,Explicit
3012,6,68,2,1,1,750,Other,Exp3a,Explicit
3012,6,69,0,0,1,928,Other,Exp3a,Explicit
3012,6,70,2,0,1,756,Other,Exp3a,Explicit
3012,6,71,1,1,1,797,Self,Exp3a,Explicit
3012,6,72,2,0,1,733,Other,Exp3a,Explicit
3012,6,73,2,1,1,766,Self,Exp3a,Explicit
3012,6,74,2,1,0,1028,Other,Exp3a,Explicit
3012,6,75,0,1,1,1053,Self,Exp3a,Explicit
3012,6,76,1,1,1,598,Self,Exp3a,Explicit
3012,6,77,1,1,1,674,Other,Exp3a,Explicit
3012,6,78,1,1,1,728,Other,Exp3a,Explicit
3012,6,79,1,0,1,665,Other,Exp3a,Explicit
3012,6,80,2,0,1,644,Self,Exp3a,Explicit
3012,6,81,0,1,1,661,Other,Exp3a,Explicit
3012,6,82,0,0,1,819,Self,Exp3a,Explicit
3012,6,83,2,1,0,558,Self,Exp3a,Explicit
3012,6,84,0,1,1,839,Self,Exp3a,Explicit
3012,6,85,2,0,1,653,Other,Exp3a,Explicit
3012,6,86,0,0,1,862,Self,Exp3a,Explicit
3012,6,87,1,0,1,788,Self,Exp3a,Explicit
3012,6,88,2,0,1,725,Self,Exp3a,Explicit
3012,6,89,0,0,1,734,Self,Exp3a,Explicit
3012,6,90,1,0,1,671,Other,Exp3a,Explicit
3012,6,91,0,0,1,776,Other,Exp3a,Explicit
3012,6,92,0,1,1,616,Other,Exp3a,Explicit
3012,6,93,2,0,0,767,Self,Exp3a,Explicit
3012,6,94,2,0,1,869,Self,Exp3a,Explicit
3012,6,95,2,1,1,989,Self,Exp3a,Explicit
3012,6,96,2,1,1,849,Other,Exp3a,Explicit
3012,6,97,1,0,1,738,Self,Exp3a,Explicit
3012,6,98,0,0,1,722,Other,Exp3a,Explicit
3012,6,99,0,1,1,755,Self,Exp3a,Explicit
3012,6,100,1,0,1,905,Self,Exp3a,Explicit
3012,6,101,0,0,1,730,Other,Exp3a,Explicit
3012,6,102,0,1,1,895,Other,Exp3a,Explicit
3012,6,103,0,0,1,723,Self,Exp3a,Explicit
3012,6,104,1,1,1,657,Self,Exp3a,Explicit
3012,6,105,2,0,1,812,Other,Exp3a,Explicit
3012,6,106,0,1,1,704,Other,Exp3a,Explicit
3012,6,107,1,1,1,630,Other,Exp3a,Explicit
3012,6,108,1,0,1,772,Self,Exp3a,Explicit
3012,6,109,2,1,1,823,Self,Exp3a,Explicit
3012,6,110,2,1,1,707,Other,Exp3a,Explicit
3012,6,111,1,1,1,774,Other,Exp3a,Explicit
3012,6,112,1,0,1,658,Other,Exp3a,Explicit
3012,6,113,0,0,1,773,Other,Exp3a,Explicit
3012,6,114,1,1,1,908,Self,Exp3a,Explicit
3012,6,115,0,1,1,658,Other,Exp3a,Explicit
3012,6,116,1,1,1,701,Other,Exp3a,Explicit
3012,6,117,0,1,1,814,Self,Exp3a,Explicit
3012,6,118,1,0,1,671,Other,Exp3a,Explicit
3012,6,119,0,1,1,925,Self,Exp3a,Explicit
3012,6,120,2,1,1,763,Self,Exp3a,Explicit
3013,1,1,1,1,1,864,Self,Exp3a,Explicit
3013,1,2,1,1,1,900,Other,Exp3a,Explicit
3013,1,3,0,0,1,774,Other,Exp3a,Explicit
3013,1,4,0,1,1,692,Self,Exp3a,Explicit
3013,1,5,1,0,1,974,Other,Exp3a,Explicit
3013,1,7,0,0,0,795,Other,Exp3a,Explicit
3013,1,8,1,1,1,785,Self,Exp3a,Explicit
3013,1,9,2,1,1,923,Other,Exp3a,Explicit
3013,1,10,1,1,1,691,Self,Exp3a,Explicit
3013,1,11,2,0,1,715,Other,Exp3a,Explicit
3013,1,12,0,0,0,735,Other,Exp3a,Explicit
3013,1,13,2,1,1,676,Self,Exp3a,Explicit
3013,1,14,0,1,0,786,Other,Exp3a,Explicit
3013,1,15,2,0,1,926,Other,Exp3a,Explicit
3013,1,16,0,0,1,834,Self,Exp3a,Explicit
3013,1,17,1,0,0,776,Self,Exp3a,Explicit
3013,1,18,1,1,1,750,Self,Exp3a,Explicit
3013,1,19,0,1,1,739,Self,Exp3a,Explicit
3013,1,20,1,0,1,865,Other,Exp3a,Explicit
3013,1,21,1,1,1,1009,Other,Exp3a,Explicit
3013,1,22,1,0,1,729,Self,Exp3a,Explicit
3013,1,23,1,0,1,723,Other,Exp3a,Explicit
3013,1,24,2,0,0,857,Other,Exp3a,Explicit
3013,1,25,1,0,1,978,Other,Exp3a,Explicit
3013,1,26,0,1,1,701,Self,Exp3a,Explicit
3013,1,27,2,1,1,973,Other,Exp3a,Explicit
3013,1,28,0,1,0,957,Other,Exp3a,Explicit
3013,1,29,1,0,1,1067,Self,Exp3a,Explicit
3013,1,30,0,1,1,747,Self,Exp3a,Explicit
3013,1,31,2,0,1,947,Self,Exp3a,Explicit
3013,1,32,2,1,1,848,Self,Exp3a,Explicit
3013,1,33,0,0,0,732,Self,Exp3a,Explicit
3013,1,34,0,0,1,842,Self,Exp3a,Explicit
3013,1,35,0,0,1,836,Self,Exp3a,Explicit
3013,1,36,2,0,1,904,Self,Exp3a,Explicit
3013,1,37,0,1,1,904,Other,Exp3a,Explicit
3013,1,38,2,1,1,888,Self,Exp3a,Explicit
3013,1,40,1,0,0,861,Other,Exp3a,Explicit
3013,1,41,0,1,1,895,Other,Exp3a,Explicit
3013,1,42,0,0,1,759,Other,Exp3a,Explicit
3013,1,43,1,0,1,1085,Self,Exp3a,Explicit
3013,1,44,1,1,1,819,Other,Exp3a,Explicit
3013,1,45,2,0,1,728,Self,Exp3a,Explicit
3013,1,46,2,1,1,956,Other,Exp3a,Explicit
3013,1,47,1,1,0,806,Other,Exp3a,Explicit
3013,1,48,2,1,1,674,Other,Exp3a,Explicit
3013,1,50,1,1,0,753,Self,Exp3a,Explicit
3013,1,51,0,1,1,671,Self,Exp3a,Explicit
3013,1,52,1,1,1,835,Other,Exp3a,Explicit
3013,1,53,0,0,1,633,Self,Exp3a,Explicit
3013,1,54,2,0,0,792,Self,Exp3a,Explicit
3013,1,55,2,1,1,601,Self,Exp3a,Explicit
3013,1,56,1,0,1,860,Self,Exp3a,Explicit
3013,1,57,2,1,1,855,Other,Exp3a,Explicit
3013,1,58,2,0,1,721,Self,Exp3a,Explicit
3013,1,59,0,0,1,989,Other,Exp3a,Explicit
3013,1,60,2,1,1,945,Self,Exp3a,Explicit
3013,1,61,1,1,1,1075,Other,Exp3a,Explicit
3013,1,62,2,0,1,737,Other,Exp3a,Explicit
3013,1,63,0,0,1,818,Other,Exp3a,Explicit
3013,1,64,1,0,1,768,Other,Exp3a,Explicit
3013,1,65,0,1,1,702,Other,Exp3a,Explicit
3013,1,66,1,0,1,842,Other,Exp3a,Explicit
3013,1,67,2,1,1,804,Other,Exp3a,Explicit
3013,1,68,0,1,1,763,Self,Exp3a,Explicit
3013,1,69,0,1,1,715,Self,Exp3a,Explicit
3013,1,70,0,1,0,699,Other,Exp3a,Explicit
3013,1,71,0,1,1,609,Other,Exp3a,Explicit
3013,1,72,1,1,1,771,Self,Exp3a,Explicit
3013,1,73,1,1,1,743,Other,Exp3a,Explicit
3013,1,74,1,1,1,1032,Other,Exp3a,Explicit
3013,1,75,1,1,0,886,Self,Exp3a,Explicit
3013,1,76,1,0,1,860,Other,Exp3a,Explicit
3013,1,77,2,0,0,678,Other,Exp3a,Explicit
3013,1,78,0,0,1,746,Self,Exp3a,Explicit
3013,1,79,0,0,1,1046,Other,Exp3a,Explicit
3013,1,80,1,0,0,751,Self,Exp3a,Explicit
3013,1,81,0,1,1,683,Self,Exp3a,Explicit
3013,1,82,1,1,1,694,Other,Exp3a,Explicit
3013,1,83,2,1,1,716,Other,Exp3a,Explicit
3013,1,84,2,1,1,654,Self,Exp3a,Explicit
3013,1,85,0,0,1,740,Other,Exp3a,Explicit
3013,1,86,1,1,1,634,Self,Exp3a,Explicit
3013,1,87,1,0,1,759,Other,Exp3a,Explicit
3013,1,88,1,1,1,709,Self,Exp3a,Explicit
3013,1,89,1,1,0,687,Other,Exp3a,Explicit
3013,1,90,2,1,1,631,Other,Exp3a,Explicit
3013,1,91,2,1,1,873,Other,Exp3a,Explicit
3013,1,92,2,1,1,613,Other,Exp3a,Explicit
3013,1,93,2,0,1,844,Other,Exp3a,Explicit
3013,1,94,0,0,1,922,Self,Exp3a,Explicit
3013,1,95,2,1,1,778,Self,Exp3a,Explicit
3013,1,96,1,0,0,754,Self,Exp3a,Explicit
3013,1,97,2,0,1,824,Self,Exp3a,Explicit
3013,1,98,1,1,1,698,Self,Exp3a,Explicit
3013,1,99,2,0,1,924,Self,Exp3a,Explicit
3013,1,100,0,0,1,959,Other,Exp3a,Explicit
3013,1,101,0,1,1,903,Other,Exp3a,Explicit
3013,1,102,0,0,0,947,Self,Exp3a,Explicit
3013,1,103,0,1,1,593,Self,Exp3a,Explicit
3013,1,104,2,1,1,743,Self,Exp3a,Explicit
3013,1,105,2,0,1,902,Self,Exp3a,Explicit
3013,1,106,2,0,0,898,Other,Exp3a,Explicit
3013,1,107,2,1,0,836,Self,Exp3a,Explicit
3013,1,108,1,0,1,870,Self,Exp3a,Explicit
3013,1,109,2,0,1,917,Self,Exp3a,Explicit
3013,1,110,0,0,1,736,Self,Exp3a,Explicit
3013,1,111,1,0,1,804,Self,Exp3a,Explicit
3013,1,112,0,1,1,670,Self,Exp3a,Explicit
3013,1,113,0,0,1,970,Other,Exp3a,Explicit
3013,1,114,1,0,1,706,Self,Exp3a,Explicit
3013,1,115,2,0,1,668,Self,Exp3a,Explicit
3013,1,116,2,0,1,894,Other,Exp3a,Explicit
3013,1,117,1,0,1,662,Other,Exp3a,Explicit
3013,1,118,0,1,0,756,Other,Exp3a,Explicit
3013,1,119,0,0,1,853,Self,Exp3a,Explicit
3013,1,120,2,1,1,705,Self,Exp3a,Explicit
3013,2,1,1,1,1,861,Other,Exp3a,Explicit
3013,2,2,1,1,1,622,Other,Exp3a,Explicit
3013,2,3,0,1,1,574,Self,Exp3a,Explicit
3013,2,4,1,0,1,720,Other,Exp3a,Explicit
3013,2,6,2,0,1,933,Other,Exp3a,Explicit
3013,2,7,2,0,0,647,Self,Exp3a,Explicit
3013,2,8,1,0,1,695,Self,Exp3a,Explicit
3013,2,9,2,1,1,680,Self,Exp3a,Explicit
3013,2,10,2,0,1,962,Other,Exp3a,Explicit
3013,2,11,0,1,1,852,Other,Exp3a,Explicit
3013,2,12,1,1,1,722,Other,Exp3a,Explicit
3013,2,13,1,0,1,808,Other,Exp3a,Explicit
3013,2,14,2,1,1,632,Self,Exp3a,Explicit
3013,2,15,0,1,1,987,Other,Exp3a,Explicit
3013,2,16,2,1,1,659,Self,Exp3a,Explicit
3013,2,17,1,1,1,853,Self,Exp3a,Explicit
3013,2,18,2,0,1,727,Other,Exp3a,Explicit
3013,2,19,0,0,1,711,Self,Exp3a,Explicit
3013,2,20,0,0,1,673,Self,Exp3a,Explicit
3013,2,21,0,1,1,694,Other,Exp3a,Explicit
3013,2,22,1,1,1,666,Self,Exp3a,Explicit
3013,2,23,0,1,1,860,Self,Exp3a,Explicit
3013,2,24,2,1,0,692,Other,Exp3a,Explicit
3013,2,25,1,0,1,848,Other,Exp3a,Explicit
3013,2,26,0,0,1,707,Self,Exp3a,Explicit
3013,2,27,0,1,1,739,Self,Exp3a,Explicit
3013,2,28,1,1,1,609,Self,Exp3a,Explicit
3013,2,29,2,1,1,793,Other,Exp3a,Explicit
3013,2,30,0,0,1,693,Other,Exp3a,Explicit
3013,2,31,1,0,1,731,Self,Exp3a,Explicit
3013,2,32,2,1,1,628,Other,Exp3a,Explicit
3013,2,33,0,0,1,695,Other,Exp3a,Explicit
3013,2,34,1,1,1,585,Self,Exp3a,Explicit
3013,2,35,2,0,1,729,Self,Exp3a,Explicit
3013,2,36,0,1,1,723,Other,Exp3a,Explicit
3013,2,37,2,1,0,873,Self,Exp3a,Explicit
3013,2,38,2,0,1,638,Self,Exp3a,Explicit
3013,2,39,2,0,1,728,Other,Exp3a,Explicit
3013,2,40,1,0,1,824,Self,Exp3a,Explicit
3013,2,41,1,1,1,830,Self,Exp3a,Explicit
3013,2,42,0,1,1,646,Self,Exp3a,Explicit
3013,2,43,1,0,1,854,Self,Exp3a,Explicit
3013,2,44,1,0,1,762,Self,Exp3a,Explicit
3013,2,45,2,1,1,623,Self,Exp3a,Explicit
3013,2,46,0,1,1,635,Self,Exp3a,Explicit
3013,2,47,1,0,1,885,Other,Exp3a,Explicit
3013,2,48,0,1,0,713,Other,Exp3a,Explicit
3013,2,49,2,0,1,757,Self,Exp3a,Explicit
3013,2,50,2,1,1,661,Other,Exp3a,Explicit
3013,2,51,0,0,1,731,Self,Exp3a,Explicit
3013,2,52,0,0,1,906,Other,Exp3a,Explicit
3013,2,53,2,0,1,730,Other,Exp3a,Explicit
3013,2,54,2,1,1,644,Other,Exp3a,Explicit
3013,2,55,0,0,0,958,Self,Exp3a,Explicit
3013,2,56,0,0,1,756,Other,Exp3a,Explicit
3013,2,57,2,0,1,777,Self,Exp3a,Explicit
3013,2,58,1,0,1,657,Other,Exp3a,Explicit
3013,2,59,1,1,1,875,Other,Exp3a,Explicit
3013,2,60,1,1,1,638,Other,Exp3a,Explicit
3013,2,61,1,1,1,618,Other,Exp3a,Explicit
3013,2,62,1,1,1,550,Other,Exp3a,Explicit
3013,2,63,0,1,0,632,Other,Exp3a,Explicit
3013,2,64,2,1,1,831,Other,Exp3a,Explicit
3013,2,65,0,1,1,873,Other,Exp3a,Explicit
3013,2,66,2,0,1,671,Self,Exp3a,Explicit
3013,2,67,2,1,1,903,Other,Exp3a,Explicit
3013,2,68,1,1,1,717,Other,Exp3a,Explicit
3013,2,69,0,1,1,584,Self,Exp3a,Explicit
3013,2,70,0,1,0,768,Other,Exp3a,Explicit
3013,2,71,0,0,1,902,Other,Exp3a,Explicit
3013,2,72,1,1,1,702,Other,Exp3a,Explicit
3013,2,73,1,0,1,902,Other,Exp3a,Explicit
3013,2,74,2,0,1,712,Other,Exp3a,Explicit
3013,2,75,0,0,1,787,Other,Exp3a,Explicit
3013,2,76,0,1,1,597,Self,Exp3a,Explicit
3013,2,77,0,0,1,735,Self,Exp3a,Explicit
3013,2,78,0,0,1,947,Self,Exp3a,Explicit
3013,2,79,2,0,1,927,Other,Exp3a,Explicit
3013,2,80,2,1,1,683,Self,Exp3a,Explicit
3013,2,81,0,0,1,708,Other,Exp3a,Explicit
3013,2,82,0,0,1,688,Other,Exp3a,Explicit
3013,2,83,2,1,1,752,Other,Exp3a,Explicit
3013,2,84,0,1,1,862,Other,Exp3a,Explicit
3013,2,85,2,0,0,894,Self,Exp3a,Explicit
3013,2,86,0,0,1,702,Self,Exp3a,Explicit
3013,2,87,0,1,1,623,Self,Exp3a,Explicit
3013,2,88,1,1,1,732,Self,Exp3a,Explicit
3013,2,89,2,1,1,764,Self,Exp3a,Explicit
3013,2,90,2,1,1,692,Self,Exp3a,Explicit
3013,2,91,1,0,1,764,Self,Exp3a,Explicit
3013,2,92,2,0,1,720,Other,Exp3a,Explicit
3013,2,93,0,1,1,664,Other,Exp3a,Explicit
3013,2,94,0,1,1,813,Self,Exp3a,Explicit
3013,2,95,1,1,1,793,Self,Exp3a,Explicit
3013,2,96,1,0,1,693,Other,Exp3a,Explicit
3013,2,97,0,0,1,873,Self,Exp3a,Explicit
3013,2,98,1,0,1,893,Other,Exp3a,Explicit
3013,2,99,1,0,1,714,Self,Exp3a,Explicit
3013,2,100,1,1,1,932,Other,Exp3a,Explicit
3013,2,101,2,0,1,798,Self,Exp3a,Explicit
3013,2,102,2,1,1,684,Self,Exp3a,Explicit
3013,2,103,0,0,1,738,Self,Exp3a,Explicit
3013,2,104,0,1,1,920,Self,Exp3a,Explicit
3013,2,105,2,1,1,764,Other,Exp3a,Explicit
3013,2,106,1,0,0,639,Self,Exp3a,Explicit
3013,2,107,2,1,1,681,Other,Exp3a,Explicit
3013,2,108,2,0,1,683,Self,Exp3a,Explicit
3013,2,109,2,0,1,665,Other,Exp3a,Explicit
3013,2,110,1,0,0,1084,Other,Exp3a,Explicit
3013,2,111,1,1,1,731,Self,Exp3a,Explicit
3013,2,112,1,0,1,898,Other,Exp3a,Explicit
3013,2,113,1,1,1,610,Self,Exp3a,Explicit
3013,2,114,1,0,1,768,Self,Exp3a,Explicit
3013,2,115,0,0,0,721,Other,Exp3a,Explicit
3013,2,116,2,0,1,647,Other,Exp3a,Explicit
3013,2,117,2,1,1,659,Self,Exp3a,Explicit
3013,2,119,1,0,1,662,Self,Exp3a,Explicit
3013,2,120,2,0,1,820,Self,Exp3a,Explicit
3013,3,1,1,1,1,769,Self,Exp3a,Explicit
3013,3,2,1,0,1,715,Self,Exp3a,Explicit
3013,3,3,0,0,0,639,Self,Exp3a,Explicit
3013,3,4,2,0,1,847,Other,Exp3a,Explicit
3013,3,5,0,1,1,613,Self,Exp3a,Explicit
3013,3,6,1,0,1,781,Other,Exp3a,Explicit
3013,3,7,1,0,1,705,Other,Exp3a,Explicit
3013,3,8,1,1,1,880,Self,Exp3a,Explicit
3013,3,9,0,1,1,656,Other,Exp3a,Explicit
3013,3,10,2,1,1,864,Self,Exp3a,Explicit
3013,3,11,0,1,1,786,Self,Exp3a,Explicit
3013,3,12,0,1,1,720,Other,Exp3a,Explicit
3013,3,13,0,1,1,573,Self,Exp3a,Explicit
3013,3,14,1,0,1,813,Other,Exp3a,Explicit
3013,3,15,0,1,1,565,Self,Exp3a,Explicit
3013,3,16,2,0,1,745,Self,Exp3a,Explicit
3013,3,17,1,1,1,675,Other,Exp3a,Explicit
3013,3,18,0,0,1,705,Other,Exp3a,Explicit
3013,3,19,1,0,1,672,Other,Exp3a,Explicit
3013,3,20,0,1,1,724,Other,Exp3a,Explicit
3013,3,21,2,1,1,593,Other,Exp3a,Explicit
3013,3,22,2,1,1,523,Other,Exp3a,Explicit
3013,3,23,0,0,1,801,Other,Exp3a,Explicit
3013,3,24,2,1,1,615,Other,Exp3a,Explicit
3013,3,25,1,1,0,647,Other,Exp3a,Explicit
3013,3,26,0,0,0,834,Self,Exp3a,Explicit
3013,3,27,2,1,1,688,Self,Exp3a,Explicit
3013,3,28,2,1,1,670,Other,Exp3a,Explicit
3013,3,29,0,0,1,672,Self,Exp3a,Explicit
3013,3,30,2,0,1,716,Other,Exp3a,Explicit
3013,3,31,1,0,1,754,Self,Exp3a,Explicit
3013,3,32,2,0,1,905,Other,Exp3a,Explicit
3013,3,33,0,1,1,733,Other,Exp3a,Explicit
3013,3,34,1,0,1,877,Self,Exp3a,Explicit
3013,3,35,0,0,1,801,Self,Exp3a,Explicit
3013,3,36,1,0,0,653,Self,Exp3a,Explicit
3013,3,37,1,1,1,705,Self,Exp3a,Explicit
3013,3,38,2,0,1,1026,Self,Exp3a,Explicit
3013,3,39,1,1,1,712,Other,Exp3a,Explicit
3013,3,40,0,0,1,724,Self,Exp3a,Explicit
3013,3,41,2,0,1,664,Other,Exp3a,Explicit
3013,3,42,2,1,1,746,Self,Exp3a,Explicit
3013,3,43,0,0,1,894,Other,Exp3a,Explicit
3013,3,44,1,1,1,703,Self,Exp3a,Explicit
3013,3,45,1,1,1,759,Other,Exp3a,Explicit
3013,3,46,1,1,0,795,Self,Exp3a,Explicit
3013,3,47,2,0,1,731,Self,Exp3a,Explicit
3013,3,48,2,0,1,875,Self,Exp3a,Explicit
3013,3,49,2,1,1,794,Self,Exp3a,Explicit
3013,3,50,0,0,1,713,Other,Exp3a,Explicit
3013,3,51,0,1,1,697,Self,Exp3a,Explicit
3013,3,52,0,1,1,1095,Other,Exp3a,Explicit
3013,3,53,1,1,1,657,Other,Exp3a,Explicit
3013,3,54,2,1,1,593,Other,Exp3a,Explicit
3013,3,55,1,0,1,741,Self,Exp3a,Explicit
3013,3,56,2,0,1,869,Other,Exp3a,Explicit
3013,3,57,2,0,1,746,Self,Exp3a,Explicit
3013,3,58,0,0,1,644,Other,Exp3a,Explicit
3013,3,59,1,0,1,888,Other,Exp3a,Explicit
3013,3,60,2,1,1,670,Self,Exp3a,Explicit
3013,3,61,2,0,1,774,Self,Exp3a,Explicit
3013,3,62,0,1,1,603,Self,Exp3a,Explicit
3013,3,63,2,0,1,695,Self,Exp3a,Explicit
3013,3,64,2,1,1,799,Self,Exp3a,Explicit
3013,3,65,0,1,1,897,Other,Exp3a,Explicit
3013,3,66,0,1,1,689,Self,Exp3a,Explicit
3013,3,67,1,1,1,669,Self,Exp3a,Explicit
3013,3,68,1,1,1,729,Other,Exp3a,Explicit
3013,3,69,2,0,1,700,Other,Exp3a,Explicit
3013,3,70,1,1,1,776,Other,Exp3a,Explicit
3013,3,71,2,1,1,776,Other,Exp3a,Explicit
3013,3,72,0,0,1,706,Self,Exp3a,Explicit
3013,3,73,0,0,1,682,Other,Exp3a,Explicit
3013,3,74,2,0,1,790,Self,Exp3a,Explicit
3013,3,75,2,1,1,734,Self,Exp3a,Explicit
3013,3,76,1,0,1,681,Other,Exp3a,Explicit
3013,3,77,2,0,1,996,Self,Exp3a,Explicit
3013,3,78,1,0,1,808,Other,Exp3a,Explicit
3013,3,80,0,1,0,688,Other,Exp3a,Explicit
3013,3,81,1,0,1,753,Self,Exp3a,Explicit
3013,3,82,2,0,1,637,Other,Exp3a,Explicit
3013,3,83,2,0,1,817,Self,Exp3a,Explicit
3013,3,84,0,0,1,709,Self,Exp3a,Explicit
3013,3,85,0,0,1,685,Self,Exp3a,Explicit
3013,3,86,1,0,1,703,Self,Exp3a,Explicit
3013,3,87,2,1,1,777,Other,Exp3a,Explicit
3013,3,88,1,0,1,752,Self,Exp3a,Explicit
3013,3,89,0,1,1,762,Other,Exp3a,Explicit
3013,3,90,0,0,1,752,Self,Exp3a,Explicit
3013,3,91,1,1,1,720,Other,Exp3a,Explicit
3013,3,92,1,0,1,628,Self,Exp3a,Explicit
3013,3,93,0,0,1,664,Self,Exp3a,Explicit
3013,3,94,2,0,1,823,Other,Exp3a,Explicit
3013,3,95,0,1,1,651,Self,Exp3a,Explicit
3013,3,96,2,1,1,643,Self,Exp3a,Explicit
3013,3,97,0,1,1,733,Other,Exp3a,Explicit
3013,3,98,2,1,1,879,Other,Exp3a,Explicit
3013,3,99,1,0,1,671,Other,Exp3a,Explicit
3013,3,100,0,0,1,861,Other,Exp3a,Explicit
3013,3,101,0,1,1,668,Self,Exp3a,Explicit
3013,3,102,2,1,1,604,Other,Exp3a,Explicit
3013,3,103,2,0,1,628,Other,Exp3a,Explicit
3013,3,104,0,0,1,748,Other,Exp3a,Explicit
3013,3,105,1,1,1,681,Self,Exp3a,Explicit
3013,3,106,1,0,1,698,Self,Exp3a,Explicit
3013,3,107,2,1,1,722,Self,Exp3a,Explicit
3013,3,108,1,1,0,648,Self,Exp3a,Explicit
3013,3,109,2,0,1,794,Other,Exp3a,Explicit
3013,3,110,1,1,1,686,Other,Exp3a,Explicit
3013,3,111,1,0,1,636,Other,Exp3a,Explicit
3013,3,112,1,0,1,672,Other,Exp3a,Explicit
3013,3,113,0,0,0,752,Other,Exp3a,Explicit
3013,3,114,0,0,1,659,Other,Exp3a,Explicit
3013,3,115,0,1,1,725,Other,Exp3a,Explicit
3013,3,116,1,1,1,767,Self,Exp3a,Explicit
3013,3,117,1,1,1,613,Self,Exp3a,Explicit
3013,3,118,2,1,1,877,Other,Exp3a,Explicit
3013,3,119,1,1,0,662,Other,Exp3a,Explicit
3013,3,120,0,1,1,646,Self,Exp3a,Explicit
3013,4,2,2,1,0,845,Self,Exp3a,Explicit
3013,4,3,1,0,1,773,Self,Exp3a,Explicit
3013,4,4,0,0,1,743,Other,Exp3a,Explicit
3013,4,5,1,1,1,813,Self,Exp3a,Explicit
3013,4,6,0,1,1,737,Other,Exp3a,Explicit
3013,4,7,0,1,1,761,Self,Exp3a,Explicit
3013,4,8,1,1,1,717,Self,Exp3a,Explicit
3013,4,9,0,0,1,826,Other,Exp3a,Explicit
3013,4,10,2,0,1,858,Self,Exp3a,Explicit
3013,4,11,2,1,1,691,Self,Exp3a,Explicit
3013,4,12,0,1,1,653,Other,Exp3a,Explicit
3013,4,13,0,0,1,639,Self,Exp3a,Explicit
3013,4,14,2,0,1,768,Other,Exp3a,Explicit
3013,4,15,2,1,1,640,Other,Exp3a,Explicit
3013,4,16,0,0,1,678,Other,Exp3a,Explicit
3013,4,17,1,0,0,592,Self,Exp3a,Explicit
3013,4,18,0,1,1,606,Self,Exp3a,Explicit
3013,4,19,0,1,1,608,Self,Exp3a,Explicit
3013,4,20,0,0,1,620,Self,Exp3a,Explicit
3013,4,21,2,0,1,633,Other,Exp3a,Explicit
3013,4,22,0,0,0,687,Self,Exp3a,Explicit
3013,4,23,2,0,1,677,Self,Exp3a,Explicit
3013,4,24,2,1,1,803,Self,Exp3a,Explicit
3013,4,25,0,1,1,709,Self,Exp3a,Explicit
3013,4,26,1,1,1,804,Self,Exp3a,Explicit
3013,4,27,2,1,1,776,Self,Exp3a,Explicit
3013,4,28,1,1,1,758,Other,Exp3a,Explicit
3013,4,29,0,0,1,882,Other,Exp3a,Explicit
3013,4,30,1,0,1,786,Other,Exp3a,Explicit
3013,4,31,1,0,1,656,Other,Exp3a,Explicit
3013,4,32,2,1,1,690,Other,Exp3a,Explicit
3013,4,33,2,1,0,719,Other,Exp3a,Explicit
3013,4,34,1,0,1,733,Self,Exp3a,Explicit
3013,4,35,1,0,1,661,Other,Exp3a,Explicit
3013,4,36,1,0,1,663,Other,Exp3a,Explicit
3013,4,37,2,0,1,689,Other,Exp3a,Explicit
3013,4,38,2,0,1,629,Self,Exp3a,Explicit
3013,4,39,1,1,1,642,Self,Exp3a,Explicit
3013,4,40,0,0,1,671,Other,Exp3a,Explicit
3013,4,41,0,1,1,849,Other,Exp3a,Explicit
3013,4,42,0,1,0,791,Other,Exp3a,Explicit
3013,4,43,2,1,1,621,Other,Exp3a,Explicit
3013,4,44,1,1,1,742,Other,Exp3a,Explicit
3013,4,45,1,0,1,648,Self,Exp3a,Explicit
3013,4,46,2,0,1,690,Other,Exp3a,Explicit
3013,4,47,2,0,1,782,Other,Exp3a,Explicit
3013,4,48,0,1,1,630,Self,Exp3a,Explicit
3013,4,49,1,0,0,816,Other,Exp3a,Explicit
3013,4,50,2,1,1,586,Other,Exp3a,Explicit
3013,4,51,0,0,1,741,Self,Exp3a,Explicit
3013,4,52,1,0,1,691,Self,Exp3a,Explicit
3013,4,53,1,1,1,643,Other,Exp3a,Explicit
3013,4,54,1,1,1,871,Self,Exp3a,Explicit
3013,4,55,0,1,1,705,Other,Exp3a,Explicit
3013,4,57,1,1,1,578,Other,Exp3a,Explicit
3013,4,58,2,1,1,730,Self,Exp3a,Explicit
3013,4,59,2,0,0,688,Self,Exp3a,Explicit
3013,4,60,0,0,1,800,Self,Exp3a,Explicit
3013,4,61,1,0,1,718,Self,Exp3a,Explicit
3013,4,62,2,1,1,692,Other,Exp3a,Explicit
3013,4,63,1,1,1,673,Other,Exp3a,Explicit
3013,4,64,2,0,0,487,Self,Exp3a,Explicit
3013,4,65,0,1,1,677,Other,Exp3a,Explicit
3013,4,66,1,1,1,808,Self,Exp3a,Explicit
3013,4,67,0,1,1,660,Other,Exp3a,Explicit
3013,4,68,2,1,1,632,Other,Exp3a,Explicit
3013,4,69,0,1,1,609,Self,Exp3a,Explicit
3013,4,70,1,1,1,669,Other,Exp3a,Explicit
3013,4,71,0,1,1,615,Self,Exp3a,Explicit
