Subject,BlockNo,TrialNo,Valence,Matchness,ACC,RT,Identity,ExpNo,Self_ref
4101,1,2,0,0,1,827,Self,Exp4a,Implicit
4101,1,3,2,0,1,637,Self,Exp4a,Implicit
4101,1,4,1,0,1,745,Self,Exp4a,Implicit
4101,1,5,1,1,1,638,Self,Exp4a,Implicit
4101,1,6,2,1,1,769,Other,Exp4a,Implicit
4101,1,7,0,1,1,681,Self,Exp4a,Implicit
4101,1,8,0,0,1,741,Other,Exp4a,Implicit
4101,1,9,1,0,1,901,Other,Exp4a,Implicit
4101,1,10,0,1,1,765,Other,Exp4a,Implicit
4101,1,11,1,1,0,1071,Other,Exp4a,Implicit
4101,1,12,2,1,1,569,Self,Exp4a,Implicit
4101,1,13,0,0,1,877,Self,Exp4a,Implicit
4101,1,14,1,0,1,929,Self,Exp4a,Implicit
4101,1,15,2,0,0,941,Other,Exp4a,Implicit
4101,1,16,0,1,1,795,Self,Exp4a,Implicit
4101,1,17,1,1,1,785,Self,Exp4a,Implicit
4101,1,18,0,1,1,988,Other,Exp4a,Implicit
4101,1,19,2,0,1,679,Self,Exp4a,Implicit
4101,1,21,1,0,1,695,Other,Exp4a,Implicit
4101,1,22,2,1,1,677,Other,Exp4a,Implicit
4101,1,23,2,1,1,539,Self,Exp4a,Implicit
4101,1,24,0,0,1,715,Other,Exp4a,Implicit
4101,1,25,0,1,1,771,Self,Exp4a,Implicit
4101,1,26,2,1,0,623,Other,Exp4a,Implicit
4101,1,27,0,0,1,917,Other,Exp4a,Implicit
4101,1,28,2,1,1,631,Self,Exp4a,Implicit
4101,1,29,1,0,1,825,Other,Exp4a,Implicit
4101,1,31,1,1,1,574,Other,Exp4a,Implicit
4101,1,32,1,1,0,680,Self,Exp4a,Implicit
4101,1,33,1,0,1,762,Self,Exp4a,Implicit
4101,1,34,2,0,1,795,Self,Exp4a,Implicit
4101,1,35,0,0,1,715,Self,Exp4a,Implicit
4101,1,36,0,1,1,1073,Other,Exp4a,Implicit
4101,1,37,0,0,1,723,Self,Exp4a,Implicit
4101,1,38,1,0,1,629,Self,Exp4a,Implicit
4101,1,39,0,0,1,709,Other,Exp4a,Implicit
4101,1,40,2,0,1,663,Self,Exp4a,Implicit
4101,1,41,1,1,1,761,Other,Exp4a,Implicit
4101,1,42,1,0,1,659,Other,Exp4a,Implicit
4101,1,43,2,1,1,868,Other,Exp4a,Implicit
4101,1,44,0,1,1,1002,Other,Exp4a,Implicit
4101,1,45,0,1,1,568,Self,Exp4a,Implicit
4101,1,46,2,1,1,642,Self,Exp4a,Implicit
4101,1,47,2,0,1,598,Other,Exp4a,Implicit
4101,1,48,1,1,0,567,Self,Exp4a,Implicit
4101,1,49,2,1,1,553,Other,Exp4a,Implicit
4101,1,51,0,0,1,647,Other,Exp4a,Implicit
4101,1,52,0,1,1,595,Self,Exp4a,Implicit
4101,1,53,1,1,1,641,Self,Exp4a,Implicit
4101,1,54,2,0,0,615,Other,Exp4a,Implicit
4101,1,55,1,0,1,810,Self,Exp4a,Implicit
4101,1,56,2,0,1,693,Self,Exp4a,Implicit
4101,1,57,2,1,0,684,Self,Exp4a,Implicit
4101,1,58,0,1,1,860,Other,Exp4a,Implicit
4101,1,59,1,0,1,710,Other,Exp4a,Implicit
4101,1,60,0,0,1,710,Self,Exp4a,Implicit
4101,2,1,1,1,1,946,Other,Exp4a,Implicit
4101,2,2,1,0,1,568,Self,Exp4a,Implicit
4101,2,3,1,1,1,700,Self,Exp4a,Implicit
4101,2,4,0,1,1,840,Other,Exp4a,Implicit
4101,2,5,1,0,1,768,Other,Exp4a,Implicit
4101,2,6,0,1,1,622,Self,Exp4a,Implicit
4101,2,7,0,0,1,760,Self,Exp4a,Implicit
4101,2,9,2,1,1,802,Other,Exp4a,Implicit
4101,2,10,2,1,1,681,Self,Exp4a,Implicit
4101,2,11,0,0,1,1035,Other,Exp4a,Implicit
4101,2,12,2,0,1,682,Self,Exp4a,Implicit
4101,2,14,0,0,0,638,Other,Exp4a,Implicit
4101,2,15,2,1,1,564,Self,Exp4a,Implicit
4101,2,16,1,1,1,540,Self,Exp4a,Implicit
4101,2,17,0,1,1,560,Self,Exp4a,Implicit
4101,2,18,0,1,0,600,Other,Exp4a,Implicit
4101,2,19,1,0,1,588,Self,Exp4a,Implicit
4101,2,20,0,0,1,620,Self,Exp4a,Implicit
4101,2,21,2,0,1,760,Self,Exp4a,Implicit
4101,2,22,2,1,1,554,Other,Exp4a,Implicit
4101,2,23,1,0,1,628,Other,Exp4a,Implicit
4101,2,24,2,0,1,527,Other,Exp4a,Implicit
4101,2,25,0,0,1,694,Other,Exp4a,Implicit
4101,2,26,0,1,1,767,Other,Exp4a,Implicit
4101,2,27,0,1,1,586,Self,Exp4a,Implicit
4101,2,28,1,1,1,624,Self,Exp4a,Implicit
4101,2,29,2,1,1,480,Self,Exp4a,Implicit
4101,2,30,1,0,1,614,Self,Exp4a,Implicit
4101,2,31,2,0,1,668,Self,Exp4a,Implicit
4101,2,32,1,0,1,832,Other,Exp4a,Implicit
4101,2,33,2,1,1,806,Other,Exp4a,Implicit
4101,2,34,1,1,1,932,Other,Exp4a,Implicit
4101,2,35,2,0,1,642,Other,Exp4a,Implicit
4101,2,36,0,0,0,546,Self,Exp4a,Implicit
4101,2,37,1,1,1,713,Other,Exp4a,Implicit
4101,2,38,1,0,1,587,Other,Exp4a,Implicit
4101,2,39,0,1,1,740,Self,Exp4a,Implicit
4101,2,40,2,1,1,668,Other,Exp4a,Implicit
4101,2,41,1,0,1,706,Self,Exp4a,Implicit
4101,2,42,1,1,1,932,Self,Exp4a,Implicit
4101,2,43,0,1,1,642,Other,Exp4a,Implicit
4101,2,44,2,0,1,666,Self,Exp4a,Implicit
4101,2,45,2,1,1,672,Self,Exp4a,Implicit
4101,2,46,0,0,1,544,Other,Exp4a,Implicit
4101,2,47,0,0,1,694,Self,Exp4a,Implicit
4101,2,48,2,0,1,830,Other,Exp4a,Implicit
4101,2,49,2,0,1,607,Other,Exp4a,Implicit
4101,2,50,0,1,1,519,Self,Exp4a,Implicit
4101,2,51,1,0,0,759,Other,Exp4a,Implicit
4101,2,52,0,0,1,699,Self,Exp4a,Implicit
4101,2,53,2,1,1,693,Other,Exp4a,Implicit
4101,2,54,0,1,1,576,Other,Exp4a,Implicit
4101,2,55,2,0,1,1014,Self,Exp4a,Implicit
4101,2,56,1,1,1,716,Self,Exp4a,Implicit
4101,2,57,0,0,1,596,Other,Exp4a,Implicit
4101,2,58,2,1,1,786,Self,Exp4a,Implicit
4101,2,59,1,0,1,718,Self,Exp4a,Implicit
4101,2,60,1,1,0,1070,Other,Exp4a,Implicit
4101,3,1,1,1,1,651,Self,Exp4a,Implicit
4101,3,2,2,0,1,554,Other,Exp4a,Implicit
4101,3,3,0,0,1,626,Self,Exp4a,Implicit
4101,3,4,1,0,1,826,Other,Exp4a,Implicit
4101,3,5,0,0,1,752,Other,Exp4a,Implicit
4101,3,6,2,1,1,505,Self,Exp4a,Implicit
4101,3,7,1,0,1,623,Self,Exp4a,Implicit
4101,3,8,1,1,1,855,Other,Exp4a,Implicit
4101,3,9,0,1,1,735,Self,Exp4a,Implicit
4101,3,10,2,0,1,641,Self,Exp4a,Implicit
4101,3,11,0,1,1,737,Other,Exp4a,Implicit
4101,3,12,2,1,1,635,Other,Exp4a,Implicit
4101,3,13,1,1,1,543,Self,Exp4a,Implicit
4101,3,14,2,0,1,707,Self,Exp4a,Implicit
4101,3,15,1,0,1,856,Other,Exp4a,Implicit
4101,3,16,0,0,0,568,Self,Exp4a,Implicit
4101,3,17,1,1,0,604,Other,Exp4a,Implicit
4101,3,18,0,1,1,570,Self,Exp4a,Implicit
4101,3,19,1,0,1,648,Self,Exp4a,Implicit
4101,3,20,0,0,1,855,Other,Exp4a,Implicit
4101,3,21,2,1,1,507,Self,Exp4a,Implicit
4101,3,22,0,1,1,621,Other,Exp4a,Implicit
4101,3,23,2,0,1,807,Other,Exp4a,Implicit
4101,3,24,2,1,1,663,Other,Exp4a,Implicit
4101,3,25,1,0,1,723,Other,Exp4a,Implicit
4101,3,26,0,0,1,711,Other,Exp4a,Implicit
4101,3,27,1,0,1,859,Self,Exp4a,Implicit
4101,3,29,2,0,1,749,Other,Exp4a,Implicit
4101,3,30,0,1,1,682,Other,Exp4a,Implicit
4101,3,31,0,1,1,594,Self,Exp4a,Implicit
4101,3,32,0,0,1,653,Self,Exp4a,Implicit
4101,3,33,2,1,1,645,Self,Exp4a,Implicit
4101,3,34,2,1,1,673,Other,Exp4a,Implicit
4101,3,35,1,1,1,779,Self,Exp4a,Implicit
4101,3,36,1,1,1,931,Other,Exp4a,Implicit
4101,3,37,2,1,1,795,Self,Exp4a,Implicit
4101,3,38,0,0,1,667,Other,Exp4a,Implicit
4101,3,39,1,1,1,573,Other,Exp4a,Implicit
4101,3,40,1,1,1,605,Self,Exp4a,Implicit
4101,3,41,0,1,1,645,Self,Exp4a,Implicit
4101,3,42,1,0,1,663,Self,Exp4a,Implicit
4101,3,43,0,1,1,825,Other,Exp4a,Implicit
4101,3,44,0,0,1,941,Self,Exp4a,Implicit
4101,3,45,2,0,1,751,Self,Exp4a,Implicit
4101,3,46,1,0,1,907,Other,Exp4a,Implicit
4101,3,47,2,0,1,771,Other,Exp4a,Implicit
4101,3,48,2,1,1,981,Other,Exp4a,Implicit
4101,3,49,0,1,1,657,Other,Exp4a,Implicit
4101,3,50,1,1,1,619,Self,Exp4a,Implicit
4101,3,51,2,1,1,561,Other,Exp4a,Implicit
4101,3,52,1,0,1,657,Self,Exp4a,Implicit
4101,3,53,2,0,1,683,Self,Exp4a,Implicit
4101,3,54,2,0,1,699,Other,Exp4a,Implicit
4101,3,55,0,0,1,763,Self,Exp4a,Implicit
4101,3,56,0,1,1,699,Self,Exp4a,Implicit
4101,3,57,1,1,1,598,Other,Exp4a,Implicit
4101,3,58,1,0,1,612,Other,Exp4a,Implicit
4101,3,59,0,0,1,542,Other,Exp4a,Implicit
4101,3,60,2,1,1,615,Self,Exp4a,Implicit
4101,4,1,0,0,1,821,Other,Exp4a,Implicit
4101,4,2,0,1,1,695,Other,Exp4a,Implicit
4101,4,3,0,0,1,667,Self,Exp4a,Implicit
4101,4,4,0,1,1,592,Self,Exp4a,Implicit
4101,4,5,2,1,1,768,Other,Exp4a,Implicit
4101,4,6,1,1,1,564,Self,Exp4a,Implicit
4101,4,7,2,1,1,494,Self,Exp4a,Implicit
4101,4,8,2,0,1,600,Other,Exp4a,Implicit
4101,4,9,1,0,1,811,Other,Exp4a,Implicit
4101,4,10,1,1,1,719,Other,Exp4a,Implicit
4101,4,11,1,0,1,593,Self,Exp4a,Implicit
4101,4,12,2,0,1,685,Self,Exp4a,Implicit
4101,4,13,2,1,1,709,Other,Exp4a,Implicit
4101,4,14,0,0,1,623,Self,Exp4a,Implicit
4101,4,15,2,0,1,569,Other,Exp4a,Implicit
4101,4,16,0,1,1,617,Other,Exp4a,Implicit
4101,4,17,1,1,1,814,Other,Exp4a,Implicit
4101,4,18,0,1,1,534,Self,Exp4a,Implicit
4101,4,19,1,0,1,718,Self,Exp4a,Implicit
4101,4,20,2,1,1,534,Self,Exp4a,Implicit
4101,4,21,0,0,1,594,Other,Exp4a,Implicit
4101,4,22,2,0,1,980,Self,Exp4a,Implicit
4101,4,23,1,0,1,621,Other,Exp4a,Implicit
4101,4,24,1,1,1,563,Self,Exp4a,Implicit
4101,4,25,2,0,1,615,Other,Exp4a,Implicit
4101,4,26,0,1,1,955,Other,Exp4a,Implicit
4101,4,27,0,1,1,587,Self,Exp4a,Implicit
4101,4,28,1,1,1,815,Self,Exp4a,Implicit
4101,4,29,0,0,1,556,Other,Exp4a,Implicit
4101,4,30,1,0,1,616,Other,Exp4a,Implicit
4101,4,31,2,1,1,700,Other,Exp4a,Implicit
4101,4,32,0,0,1,820,Self,Exp4a,Implicit
4101,4,33,1,0,1,778,Self,Exp4a,Implicit
4101,4,34,2,1,1,622,Self,Exp4a,Implicit
4101,4,36,2,0,1,652,Self,Exp4a,Implicit
4101,4,37,1,1,1,920,Other,Exp4a,Implicit
4101,4,38,0,1,1,643,Self,Exp4a,Implicit
4101,4,39,2,1,1,843,Other,Exp4a,Implicit
4101,4,40,2,0,0,841,Self,Exp4a,Implicit
4101,4,41,0,0,1,875,Other,Exp4a,Implicit
4101,4,42,2,0,0,930,Other,Exp4a,Implicit
4101,4,43,2,1,1,502,Self,Exp4a,Implicit
4101,4,44,0,1,1,664,Other,Exp4a,Implicit
4101,4,45,1,0,1,950,Other,Exp4a,Implicit
4101,4,46,1,0,1,744,Self,Exp4a,Implicit
4101,4,48,1,1,1,716,Self,Exp4a,Implicit
4101,4,49,0,1,1,432,Self,Exp4a,Implicit
4101,4,50,2,0,1,628,Self,Exp4a,Implicit
4101,4,51,0,0,1,830,Self,Exp4a,Implicit
4101,4,52,1,0,1,643,Self,Exp4a,Implicit
4101,4,53,1,1,1,543,Self,Exp4a,Implicit
4101,4,54,0,1,1,928,Other,Exp4a,Implicit
4101,4,55,0,0,1,716,Other,Exp4a,Implicit
4101,4,56,1,1,0,966,Other,Exp4a,Implicit
4101,4,57,1,0,1,606,Other,Exp4a,Implicit
4101,4,58,2,1,1,556,Self,Exp4a,Implicit
4101,4,59,2,1,1,712,Other,Exp4a,Implicit
4101,4,60,2,0,1,776,Other,Exp4a,Implicit
4101,5,1,2,0,1,694,Other,Exp4a,Implicit
4101,5,2,2,1,1,748,Other,Exp4a,Implicit
4101,5,3,1,1,1,636,Other,Exp4a,Implicit
4101,5,4,0,1,1,712,Other,Exp4a,Implicit
4101,5,5,0,0,1,674,Self,Exp4a,Implicit
4101,5,6,1,0,1,722,Self,Exp4a,Implicit
4101,5,7,0,0,0,740,Other,Exp4a,Implicit
4101,5,8,2,0,0,880,Self,Exp4a,Implicit
4101,5,9,1,1,1,536,Self,Exp4a,Implicit
4101,5,10,2,1,1,603,Self,Exp4a,Implicit
4101,5,11,0,1,1,597,Self,Exp4a,Implicit
4101,5,12,1,0,1,808,Other,Exp4a,Implicit
4101,5,13,2,0,1,658,Self,Exp4a,Implicit
4101,5,14,1,1,1,672,Self,Exp4a,Implicit
4101,5,15,2,1,1,574,Self,Exp4a,Implicit
4101,5,16,1,0,1,536,Other,Exp4a,Implicit
4101,5,17,1,1,1,968,Other,Exp4a,Implicit
4101,5,18,0,0,1,606,Self,Exp4a,Implicit
4101,5,19,1,0,1,564,Self,Exp4a,Implicit
4101,5,20,0,1,1,488,Self,Exp4a,Implicit
4101,5,21,2,0,1,606,Other,Exp4a,Implicit
4101,5,22,0,0,1,574,Other,Exp4a,Implicit
4101,5,23,2,1,1,703,Other,Exp4a,Implicit
4101,5,24,0,1,1,713,Other,Exp4a,Implicit
4101,5,25,0,1,1,511,Other,Exp4a,Implicit
4101,5,26,2,0,1,563,Other,Exp4a,Implicit
4101,5,27,0,0,1,737,Self,Exp4a,Implicit
4101,5,28,0,0,1,976,Other,Exp4a,Implicit
4101,5,29,2,0,1,792,Self,Exp4a,Implicit
4101,5,30,1,0,1,738,Self,Exp4a,Implicit
4101,5,31,2,1,1,740,Self,Exp4a,Implicit
4101,5,32,0,1,1,486,Self,Exp4a,Implicit
4101,5,33,1,1,1,426,Self,Exp4a,Implicit
4101,5,34,1,0,1,566,Other,Exp4a,Implicit
4101,5,35,1,1,1,808,Other,Exp4a,Implicit
4101,5,36,2,1,1,549,Other,Exp4a,Implicit
4101,5,37,2,0,1,599,Other,Exp4a,Implicit
4101,5,38,2,0,1,693,Self,Exp4a,Implicit
4101,5,39,0,0,1,607,Other,Exp4a,Implicit
4101,5,40,0,1,1,617,Other,Exp4a,Implicit
4101,5,41,2,1,1,731,Self,Exp4a,Implicit
4101,5,42,0,1,1,454,Self,Exp4a,Implicit
4101,5,43,0,0,1,682,Self,Exp4a,Implicit
4101,5,44,1,1,0,644,Self,Exp4a,Implicit
4101,5,45,1,0,1,812,Self,Exp4a,Implicit
4101,5,46,1,0,1,564,Other,Exp4a,Implicit
4101,5,47,2,1,1,682,Other,Exp4a,Implicit
4101,5,48,1,1,0,750,Other,Exp4a,Implicit
4101,5,49,1,0,1,603,Other,Exp4a,Implicit
4101,5,50,2,1,1,545,Self,Exp4a,Implicit
4101,5,51,1,1,1,419,Self,Exp4a,Implicit
4101,5,52,2,0,1,687,Self,Exp4a,Implicit
4101,5,53,1,0,1,721,Self,Exp4a,Implicit
4101,5,54,2,1,1,771,Other,Exp4a,Implicit
4101,5,55,0,1,1,753,Self,Exp4a,Implicit
4101,5,57,2,0,1,626,Other,Exp4a,Implicit
4101,5,58,0,0,1,774,Self,Exp4a,Implicit
4101,5,59,0,0,1,581,Other,Exp4a,Implicit
4101,5,60,1,1,1,620,Other,Exp4a,Implicit
4101,6,1,1,1,1,521,Self,Exp4a,Implicit
4101,6,2,2,0,1,528,Other,Exp4a,Implicit
4101,6,3,2,1,1,568,Other,Exp4a,Implicit
4101,6,4,0,1,1,504,Other,Exp4a,Implicit
4101,6,5,1,0,1,555,Other,Exp4a,Implicit
4101,6,6,0,0,1,669,Self,Exp4a,Implicit
4101,6,7,0,1,1,445,Self,Exp4a,Implicit
4101,6,8,0,0,1,585,Other,Exp4a,Implicit
4101,6,9,2,0,1,719,Self,Exp4a,Implicit
4101,6,10,1,0,1,689,Self,Exp4a,Implicit
4101,6,11,2,1,1,601,Self,Exp4a,Implicit
4101,6,12,1,1,0,565,Other,Exp4a,Implicit
4101,6,13,1,1,1,525,Self,Exp4a,Implicit
4101,6,14,1,0,1,845,Self,Exp4a,Implicit
4101,6,15,0,0,1,627,Other,Exp4a,Implicit
4101,6,16,2,1,1,663,Self,Exp4a,Implicit
4101,6,17,2,1,1,695,Other,Exp4a,Implicit
4101,6,18,2,0,1,663,Other,Exp4a,Implicit
4101,6,19,0,1,1,509,Self,Exp4a,Implicit
4101,6,20,1,0,1,571,Other,Exp4a,Implicit
4101,6,21,0,1,0,793,Other,Exp4a,Implicit
4101,6,22,2,0,1,813,Self,Exp4a,Implicit
4101,6,23,0,0,1,629,Self,Exp4a,Implicit
4101,6,24,1,1,1,569,Other,Exp4a,Implicit
4101,6,25,1,1,1,523,Self,Exp4a,Implicit
4101,6,26,1,1,1,871,Other,Exp4a,Implicit
4101,6,27,2,0,1,863,Self,Exp4a,Implicit
4101,6,28,1,0,1,627,Other,Exp4a,Implicit
4101,6,29,0,1,1,679,Self,Exp4a,Implicit
4101,6,30,2,1,1,772,Other,Exp4a,Implicit
4101,6,31,2,0,1,592,Other,Exp4a,Implicit
4101,6,32,0,1,1,767,Other,Exp4a,Implicit
4101,6,33,1,0,1,688,Self,Exp4a,Implicit
4101,6,34,0,0,1,935,Other,Exp4a,Implicit
4101,6,35,0,0,1,561,Self,Exp4a,Implicit
4101,6,36,2,1,1,445,Self,Exp4a,Implicit
4101,6,37,1,0,1,699,Self,Exp4a,Implicit
4101,6,38,0,1,1,935,Other,Exp4a,Implicit
4101,6,39,2,0,1,677,Other,Exp4a,Implicit
4101,6,40,0,0,1,653,Other,Exp4a,Implicit
4101,6,41,2,1,1,717,Other,Exp4a,Implicit
4101,6,42,1,1,1,671,Other,Exp4a,Implicit
4101,6,43,2,1,1,518,Self,Exp4a,Implicit
4101,6,44,2,0,1,658,Self,Exp4a,Implicit
4101,6,45,1,1,1,536,Self,Exp4a,Implicit
4101,6,46,0,1,1,532,Self,Exp4a,Implicit
4101,6,47,0,0,1,623,Self,Exp4a,Implicit
4101,6,48,1,0,1,565,Other,Exp4a,Implicit
4101,6,49,1,1,1,627,Other,Exp4a,Implicit
4101,6,50,2,0,1,633,Self,Exp4a,Implicit
4101,6,51,2,1,1,657,Other,Exp4a,Implicit
4101,6,52,0,1,1,713,Other,Exp4a,Implicit
4101,6,53,0,1,1,573,Self,Exp4a,Implicit
4101,6,54,0,0,1,602,Self,Exp4a,Implicit
4101,6,55,0,0,0,485,Other,Exp4a,Implicit
4101,6,56,2,0,1,562,Other,Exp4a,Implicit
4101,6,57,2,1,1,474,Self,Exp4a,Implicit
4101,6,58,1,0,1,770,Other,Exp4a,Implicit
4101,6,59,1,0,1,836,Self,Exp4a,Implicit
4101,6,60,1,1,1,672,Self,Exp4a,Implicit
4110,1,1,2,1,0,947,Other,Exp4a,Implicit
4110,1,2,1,0,1,887,Self,Exp4a,Implicit
4110,1,3,0,0,1,673,Other,Exp4a,Implicit
4110,1,4,0,0,0,483,Self,Exp4a,Implicit
4110,1,5,0,1,1,791,Self,Exp4a,Implicit
4110,1,6,2,0,1,924,Other,Exp4a,Implicit
4110,1,7,2,0,1,814,Self,Exp4a,Implicit
4110,1,8,1,1,1,514,Self,Exp4a,Implicit
4110,1,9,1,0,1,616,Other,Exp4a,Implicit
4110,1,10,0,1,0,648,Other,Exp4a,Implicit
4110,1,11,2,1,0,840,Self,Exp4a,Implicit
4110,1,12,1,1,1,595,Other,Exp4a,Implicit
4110,1,13,0,0,1,1049,Self,Exp4a,Implicit
4110,1,14,2,1,1,495,Self,Exp4a,Implicit
4110,1,15,1,1,0,583,Self,Exp4a,Implicit
4110,1,16,0,1,1,453,Self,Exp4a,Implicit
4110,1,17,0,1,0,1034,Other,Exp4a,Implicit
4110,1,19,1,1,0,642,Other,Exp4a,Implicit
4110,1,20,2,0,0,371,Other,Exp4a,Implicit
4110,1,21,1,0,1,843,Other,Exp4a,Implicit
4110,1,22,2,1,0,601,Other,Exp4a,Implicit
4110,1,23,1,0,0,763,Self,Exp4a,Implicit
4110,1,24,0,0,1,732,Other,Exp4a,Implicit
4110,1,25,1,1,0,652,Self,Exp4a,Implicit
4110,1,26,2,1,1,478,Self,Exp4a,Implicit
4110,1,27,2,0,1,768,Other,Exp4a,Implicit
4110,1,28,1,0,0,608,Self,Exp4a,Implicit
4110,1,29,1,1,0,614,Other,Exp4a,Implicit
4110,1,30,0,1,1,613,Self,Exp4a,Implicit
4110,1,31,2,1,0,695,Other,Exp4a,Implicit
4110,1,32,0,0,1,997,Self,Exp4a,Implicit
4110,1,33,1,0,1,819,Other,Exp4a,Implicit
4110,1,34,2,0,0,975,Self,Exp4a,Implicit
4110,1,35,0,0,1,610,Other,Exp4a,Implicit
4110,1,36,0,1,1,862,Other,Exp4a,Implicit
4110,1,37,0,0,1,734,Self,Exp4a,Implicit
4110,1,38,1,1,1,822,Self,Exp4a,Implicit
4110,1,39,2,0,1,618,Other,Exp4a,Implicit
4110,1,40,0,1,1,892,Other,Exp4a,Implicit
4110,1,41,2,1,1,655,Self,Exp4a,Implicit
4110,1,43,2,0,1,1005,Self,Exp4a,Implicit
4110,1,44,1,0,1,789,Other,Exp4a,Implicit
4110,1,45,1,0,1,885,Self,Exp4a,Implicit
4110,1,46,1,1,1,963,Other,Exp4a,Implicit
4110,1,47,0,1,1,579,Self,Exp4a,Implicit
4110,1,49,2,1,1,255,Other,Exp4a,Implicit
4110,1,50,2,0,1,481,Self,Exp4a,Implicit
4110,1,51,1,1,1,595,Other,Exp4a,Implicit
4110,1,52,2,1,0,823,Self,Exp4a,Implicit
4110,1,53,0,1,0,790,Other,Exp4a,Implicit
4110,1,54,0,0,0,550,Self,Exp4a,Implicit
4110,1,55,1,0,1,702,Other,Exp4a,Implicit
4110,1,56,1,0,0,802,Self,Exp4a,Implicit
4110,1,57,1,1,0,318,Self,Exp4a,Implicit
4110,1,58,0,1,1,544,Self,Exp4a,Implicit
4110,1,60,2,0,0,997,Other,Exp4a,Implicit
4110,2,1,1,1,0,827,Other,Exp4a,Implicit
4110,2,2,0,0,1,963,Other,Exp4a,Implicit
4110,2,3,1,1,1,616,Self,Exp4a,Implicit
4110,2,4,2,1,0,694,Other,Exp4a,Implicit
4110,2,5,0,1,1,521,Other,Exp4a,Implicit
4110,2,6,2,0,1,891,Self,Exp4a,Implicit
4110,2,7,2,1,1,787,Self,Exp4a,Implicit
4110,2,8,0,0,1,993,Self,Exp4a,Implicit
4110,2,9,1,0,1,869,Self,Exp4a,Implicit
4110,2,10,1,0,0,1007,Other,Exp4a,Implicit
4110,2,11,0,1,1,827,Self,Exp4a,Implicit
4110,2,12,2,0,1,820,Other,Exp4a,Implicit
4110,2,13,1,1,0,658,Other,Exp4a,Implicit
4110,2,15,0,0,0,1040,Other,Exp4a,Implicit
4110,2,16,2,1,0,1032,Other,Exp4a,Implicit
4110,2,17,2,0,0,508,Other,Exp4a,Implicit
4110,2,18,1,0,1,1001,Self,Exp4a,Implicit
4110,2,19,2,1,1,829,Self,Exp4a,Implicit
4110,2,20,0,1,1,1077,Other,Exp4a,Implicit
4110,2,21,1,1,1,949,Self,Exp4a,Implicit
4110,2,22,2,0,0,895,Self,Exp4a,Implicit
4110,2,23,0,1,1,621,Self,Exp4a,Implicit
4110,2,24,1,0,1,680,Other,Exp4a,Implicit
4110,2,25,2,1,1,272,Other,Exp4a,Implicit
4110,2,26,2,0,0,782,Self,Exp4a,Implicit
4110,2,27,0,1,0,478,Other,Exp4a,Implicit
4110,2,28,1,0,0,204,Self,Exp4a,Implicit
4110,2,30,1,1,0,965,Other,Exp4a,Implicit
4110,2,31,2,0,0,734,Other,Exp4a,Implicit
4110,2,33,0,1,1,776,Self,Exp4a,Implicit
4110,2,34,2,1,1,624,Self,Exp4a,Implicit
4110,2,35,0,0,1,607,Other,Exp4a,Implicit
4110,2,36,1,0,0,543,Other,Exp4a,Implicit
4110,2,37,2,0,1,765,Self,Exp4a,Implicit
4110,2,38,1,1,1,1035,Other,Exp4a,Implicit
4110,2,39,0,1,1,537,Self,Exp4a,Implicit
4110,2,40,0,0,1,769,Other,Exp4a,Implicit
4110,2,41,0,1,0,859,Other,Exp4a,Implicit
4110,2,42,0,0,1,812,Self,Exp4a,Implicit
4110,2,43,2,0,1,1080,Other,Exp4a,Implicit
4110,2,44,1,1,1,576,Self,Exp4a,Implicit
4110,2,45,1,0,0,888,Other,Exp4a,Implicit
4110,2,46,1,0,1,616,Self,Exp4a,Implicit
4110,2,47,2,1,1,1035,Self,Exp4a,Implicit
4110,2,49,1,0,1,449,Self,Exp4a,Implicit
4110,2,50,1,0,1,659,Other,Exp4a,Implicit
4110,2,51,2,0,1,695,Self,Exp4a,Implicit
4110,2,52,0,1,1,721,Other,Exp4a,Implicit
4110,2,53,2,0,1,1044,Other,Exp4a,Implicit
4110,2,54,2,1,0,600,Other,Exp4a,Implicit
4110,2,55,0,0,1,892,Self,Exp4a,Implicit
4110,2,56,0,0,1,806,Other,Exp4a,Implicit
4110,2,57,1,1,1,626,Self,Exp4a,Implicit
4110,2,58,0,1,0,246,Self,Exp4a,Implicit
4110,2,59,2,1,1,589,Self,Exp4a,Implicit
4110,2,60,1,1,1,596,Other,Exp4a,Implicit
4110,3,1,1,0,1,898,Self,Exp4a,Implicit
4110,3,2,2,0,1,642,Other,Exp4a,Implicit
4110,3,3,2,0,1,516,Self,Exp4a,Implicit
4110,3,4,1,1,1,646,Self,Exp4a,Implicit
4110,3,5,0,1,1,693,Self,Exp4a,Implicit
4110,3,6,1,1,0,783,Other,Exp4a,Implicit
4110,3,7,2,1,1,615,Self,Exp4a,Implicit
4110,3,8,0,1,1,551,Other,Exp4a,Implicit
4110,3,9,0,0,0,577,Self,Exp4a,Implicit
4110,3,10,1,0,1,863,Other,Exp4a,Implicit
4110,3,11,2,1,0,911,Other,Exp4a,Implicit
4110,3,13,1,1,1,794,Self,Exp4a,Implicit
4110,3,14,0,1,1,800,Other,Exp4a,Implicit
4110,3,15,2,0,1,913,Other,Exp4a,Implicit
4110,3,16,0,1,1,753,Self,Exp4a,Implicit
4110,3,17,0,0,1,897,Self,Exp4a,Implicit
4110,3,18,1,1,1,763,Other,Exp4a,Implicit
4110,3,19,2,0,0,466,Self,Exp4a,Implicit
4110,3,20,1,0,1,1046,Self,Exp4a,Implicit
4110,3,22,2,1,1,366,Other,Exp4a,Implicit
4110,3,23,1,0,1,396,Other,Exp4a,Implicit
4110,3,24,2,1,1,588,Self,Exp4a,Implicit
4110,3,25,0,1,0,601,Other,Exp4a,Implicit
4110,3,26,0,1,1,207,Self,Exp4a,Implicit
4110,3,27,2,1,1,431,Self,Exp4a,Implicit
4110,3,28,1,0,1,687,Self,Exp4a,Implicit
4110,3,29,1,0,0,915,Other,Exp4a,Implicit
4110,3,30,1,1,1,620,Self,Exp4a,Implicit
4110,3,31,2,0,1,882,Self,Exp4a,Implicit
4110,3,32,0,0,0,594,Self,Exp4a,Implicit
4110,3,33,2,1,1,830,Other,Exp4a,Implicit
4110,3,34,1,1,1,748,Other,Exp4a,Implicit
4110,3,35,2,0,1,302,Other,Exp4a,Implicit
4110,3,38,2,0,1,539,Self,Exp4a,Implicit
4110,3,39,1,0,0,219,Other,Exp4a,Implicit
4110,3,40,2,0,1,393,Other,Exp4a,Implicit
4110,3,41,0,1,0,281,Other,Exp4a,Implicit
4110,3,43,2,1,0,450,Other,Exp4a,Implicit
4110,3,44,0,1,1,393,Self,Exp4a,Implicit
4110,3,45,1,1,1,387,Other,Exp4a,Implicit
4110,3,46,1,0,0,409,Self,Exp4a,Implicit
4110,3,47,2,1,0,617,Self,Exp4a,Implicit
4110,3,48,0,0,0,213,Other,Exp4a,Implicit
4110,3,49,1,1,1,678,Other,Exp4a,Implicit
4110,3,50,0,0,1,736,Self,Exp4a,Implicit
4110,3,51,0,1,1,218,Self,Exp4a,Implicit
4110,3,52,2,1,1,334,Self,Exp4a,Implicit
4110,3,53,1,0,0,402,Other,Exp4a,Implicit
4110,3,54,2,0,1,712,Self,Exp4a,Implicit
4110,3,55,2,0,0,247,Other,Exp4a,Implicit
4110,3,57,1,1,1,501,Self,Exp4a,Implicit
4110,3,58,1,0,1,431,Self,Exp4a,Implicit
4110,3,59,0,1,1,613,Other,Exp4a,Implicit
4110,3,60,0,0,1,758,Other,Exp4a,Implicit
4110,4,1,2,0,1,971,Other,Exp4a,Implicit
4110,4,2,0,0,1,619,Self,Exp4a,Implicit
4110,4,3,2,1,1,477,Self,Exp4a,Implicit
4110,4,4,2,0,1,707,Self,Exp4a,Implicit
4110,4,5,1,0,1,820,Self,Exp4a,Implicit
4110,4,6,0,0,1,778,Other,Exp4a,Implicit
4110,4,7,0,1,1,502,Other,Exp4a,Implicit
4110,4,8,1,1,1,1038,Self,Exp4a,Implicit
4110,4,9,1,0,1,564,Other,Exp4a,Implicit
4110,4,10,2,1,1,702,Other,Exp4a,Implicit
4110,4,11,0,1,0,487,Self,Exp4a,Implicit
4110,4,12,1,1,0,605,Other,Exp4a,Implicit
4110,4,13,1,0,0,671,Other,Exp4a,Implicit
4110,4,14,1,1,1,521,Self,Exp4a,Implicit
4110,4,15,0,1,1,581,Self,Exp4a,Implicit
4110,4,16,0,0,0,383,Other,Exp4a,Implicit
4110,4,17,1,0,1,682,Self,Exp4a,Implicit
4110,4,18,2,0,1,808,Other,Exp4a,Implicit
4110,4,19,2,1,0,626,Other,Exp4a,Implicit
4110,4,20,2,1,1,796,Self,Exp4a,Implicit
4110,4,21,0,1,0,578,Other,Exp4a,Implicit
4110,4,22,1,1,1,614,Other,Exp4a,Implicit
4110,4,23,2,0,1,844,Self,Exp4a,Implicit
4110,4,24,0,0,0,597,Self,Exp4a,Implicit
4110,4,25,0,0,1,893,Other,Exp4a,Implicit
4110,4,26,2,0,1,815,Self,Exp4a,Implicit
4110,4,27,1,1,1,1036,Self,Exp4a,Implicit
4110,4,28,1,1,1,814,Other,Exp4a,Implicit
4110,4,29,2,1,0,837,Self,Exp4a,Implicit
4110,4,30,0,0,1,717,Self,Exp4a,Implicit
4110,4,31,0,1,0,933,Other,Exp4a,Implicit
4110,4,32,0,1,1,617,Self,Exp4a,Implicit
4110,4,33,2,0,1,811,Other,Exp4a,Implicit
4110,4,34,1,0,1,737,Other,Exp4a,Implicit
4110,4,35,2,1,0,811,Other,Exp4a,Implicit
4110,4,36,1,0,0,622,Self,Exp4a,Implicit
4110,4,37,2,1,0,694,Other,Exp4a,Implicit
4110,4,38,1,1,1,710,Other,Exp4a,Implicit
4110,4,39,1,0,1,948,Other,Exp4a,Implicit
4110,4,40,0,0,1,794,Other,Exp4a,Implicit
4110,4,41,2,0,1,766,Other,Exp4a,Implicit
4110,4,42,0,1,0,645,Other,Exp4a,Implicit
4110,4,43,0,1,1,713,Self,Exp4a,Implicit
4110,4,44,0,0,1,841,Self,Exp4a,Implicit
4110,4,45,2,1,1,555,Self,Exp4a,Implicit
4110,4,46,2,0,1,825,Self,Exp4a,Implicit
4110,4,47,1,1,1,525,Self,Exp4a,Implicit
4110,4,48,1,0,0,668,Self,Exp4a,Implicit
4110,4,50,1,0,0,960,Other,Exp4a,Implicit
4110,4,51,0,1,0,640,Other,Exp4a,Implicit
4110,4,52,0,1,1,506,Self,Exp4a,Implicit
4110,4,53,1,0,1,606,Self,Exp4a,Implicit
4110,4,54,0,0,1,980,Self,Exp4a,Implicit
4110,4,55,1,1,1,752,Other,Exp4a,Implicit
4110,4,56,2,1,1,730,Self,Exp4a,Implicit
4110,4,57,2,0,1,834,Self,Exp4a,Implicit
4110,4,58,0,0,1,694,Other,Exp4a,Implicit
4110,4,59,1,1,1,706,Self,Exp4a,Implicit
4110,4,60,2,0,1,687,Other,Exp4a,Implicit
4110,5,1,0,0,1,718,Self,Exp4a,Implicit
4110,5,2,2,1,1,663,Self,Exp4a,Implicit
4110,5,3,0,1,0,580,Other,Exp4a,Implicit
4110,5,4,1,1,1,454,Self,Exp4a,Implicit
4110,5,5,2,0,1,868,Other,Exp4a,Implicit
4110,5,6,0,0,0,682,Other,Exp4a,Implicit
4110,5,7,2,0,1,886,Self,Exp4a,Implicit
4110,5,8,1,0,0,634,Self,Exp4a,Implicit
4110,5,9,2,1,0,828,Other,Exp4a,Implicit
4110,5,10,0,1,1,589,Self,Exp4a,Implicit
4110,5,11,1,1,0,637,Other,Exp4a,Implicit
4110,5,12,1,0,1,679,Other,Exp4a,Implicit
4110,5,14,0,1,1,863,Other,Exp4a,Implicit
4110,5,15,1,0,1,899,Other,Exp4a,Implicit
4110,5,16,2,1,1,550,Self,Exp4a,Implicit
4110,5,17,0,0,1,816,Other,Exp4a,Implicit
4110,5,18,0,1,1,590,Self,Exp4a,Implicit
4110,5,19,2,0,1,784,Self,Exp4a,Implicit
4110,5,20,1,0,1,996,Self,Exp4a,Implicit
4110,5,21,1,1,1,864,Other,Exp4a,Implicit
4110,5,22,0,0,1,717,Self,Exp4a,Implicit
4110,5,23,2,1,1,987,Other,Exp4a,Implicit
4110,5,24,1,1,1,721,Self,Exp4a,Implicit
4110,5,26,0,1,1,627,Self,Exp4a,Implicit
4110,5,27,2,0,1,563,Other,Exp4a,Implicit
4110,5,28,2,1,1,928,Other,Exp4a,Implicit
4110,5,29,1,1,1,966,Self,Exp4a,Implicit
4110,5,30,2,0,1,755,Self,Exp4a,Implicit
4110,5,31,1,0,0,511,Other,Exp4a,Implicit
4110,5,32,0,0,1,891,Self,Exp4a,Implicit
4110,5,33,1,0,1,787,Self,Exp4a,Implicit
4110,5,34,2,1,1,624,Self,Exp4a,Implicit
4110,5,35,0,0,1,972,Other,Exp4a,Implicit
4110,5,36,1,1,1,734,Other,Exp4a,Implicit
4110,5,37,2,0,1,602,Self,Exp4a,Implicit
4110,5,38,0,1,1,414,Self,Exp4a,Implicit
4110,5,39,0,1,0,582,Other,Exp4a,Implicit
4110,5,40,0,0,0,592,Self,Exp4a,Implicit
4110,5,41,0,0,0,467,Other,Exp4a,Implicit
4110,5,42,2,1,1,825,Other,Exp4a,Implicit
4110,5,43,1,0,1,537,Other,Exp4a,Implicit
4110,5,44,2,1,1,305,Self,Exp4a,Implicit
4110,5,45,1,1,0,559,Other,Exp4a,Implicit
4110,5,46,1,1,1,525,Self,Exp4a,Implicit
4110,5,47,1,0,1,816,Self,Exp4a,Implicit
4110,5,48,2,0,0,784,Other,Exp4a,Implicit
4110,5,49,1,0,1,768,Self,Exp4a,Implicit
4110,5,50,0,0,1,704,Self,Exp4a,Implicit
4110,5,51,1,0,1,896,Other,Exp4a,Implicit
4110,5,52,2,0,1,940,Self,Exp4a,Implicit
4110,5,53,2,1,1,685,Self,Exp4a,Implicit
4110,5,54,0,1,1,493,Self,Exp4a,Implicit
4110,5,55,1,1,1,541,Self,Exp4a,Implicit
4110,5,56,2,0,1,683,Other,Exp4a,Implicit
4110,5,57,0,0,1,749,Other,Exp4a,Implicit
4110,5,58,1,1,0,728,Other,Exp4a,Implicit
4110,5,59,2,1,1,435,Other,Exp4a,Implicit
4110,5,60,0,1,0,759,Other,Exp4a,Implicit
4110,6,1,2,0,1,815,Self,Exp4a,Implicit
4110,6,2,0,0,0,837,Other,Exp4a,Implicit
4110,6,3,0,0,1,750,Self,Exp4a,Implicit
4110,6,4,1,0,1,818,Other,Exp4a,Implicit
4110,6,5,2,1,1,526,Self,Exp4a,Implicit
4110,6,6,1,1,1,698,Self,Exp4a,Implicit
4110,6,7,1,1,0,696,Other,Exp4a,Implicit
4110,6,8,0,1,1,517,Other,Exp4a,Implicit
4110,6,9,2,0,1,693,Other,Exp4a,Implicit
4110,6,10,2,1,1,713,Other,Exp4a,Implicit
4110,6,11,0,1,1,455,Self,Exp4a,Implicit
4110,6,12,1,0,1,777,Self,Exp4a,Implicit
4110,6,13,1,0,0,509,Self,Exp4a,Implicit
4110,6,14,0,1,0,864,Other,Exp4a,Implicit
4110,6,15,1,0,1,796,Other,Exp4a,Implicit
4110,6,16,0,0,0,1062,Self,Exp4a,Implicit
4110,6,17,2,1,0,832,Self,Exp4a,Implicit
4110,6,18,2,1,0,1082,Other,Exp4a,Implicit
4110,6,19,0,0,0,598,Other,Exp4a,Implicit
4110,6,22,2,0,0,599,Other,Exp4a,Implicit
4110,6,26,0,1,1,223,Other,Exp4a,Implicit
4110,6,27,1,1,1,601,Self,Exp4a,Implicit
4110,6,28,2,1,1,565,Self,Exp4a,Implicit
4110,6,29,0,0,1,679,Other,Exp4a,Implicit
4110,6,31,2,0,1,581,Self,Exp4a,Implicit
4110,6,32,2,0,0,796,Other,Exp4a,Implicit
4110,6,33,0,1,1,682,Self,Exp4a,Implicit
4110,6,34,2,1,1,916,Other,Exp4a,Implicit
4110,6,35,1,0,1,652,Other,Exp4a,Implicit
4110,6,36,0,0,0,688,Self,Exp4a,Implicit
4110,6,37,2,0,1,624,Self,Exp4a,Implicit
4110,6,38,1,0,0,565,Self,Exp4a,Implicit
4110,6,39,1,1,0,443,Other,Exp4a,Implicit
4110,6,40,1,1,1,599,Self,Exp4a,Implicit
4110,6,41,0,0,1,833,Self,Exp4a,Implicit
4110,6,42,2,1,0,983,Other,Exp4a,Implicit
4110,6,43,1,0,1,684,Other,Exp4a,Implicit
4110,6,44,2,1,0,954,Self,Exp4a,Implicit
4110,6,45,0,1,0,656,Other,Exp4a,Implicit
4110,6,46,0,1,1,956,Self,Exp4a,Implicit
4110,6,47,0,0,1,592,Other,Exp4a,Implicit
4110,6,48,2,0,0,1002,Other,Exp4a,Implicit
4110,6,49,2,0,1,883,Other,Exp4a,Implicit
4110,6,50,1,1,1,1047,Other,Exp4a,Implicit
4110,6,51,2,0,1,606,Self,Exp4a,Implicit
4110,6,52,1,0,1,618,Self,Exp4a,Implicit
4110,6,53,0,1,1,766,Other,Exp4a,Implicit
4110,6,56,1,1,1,337,Self,Exp4a,Implicit
4110,6,57,0,0,1,547,Other,Exp4a,Implicit
4110,6,58,0,0,0,541,Self,Exp4a,Implicit
4110,6,59,2,1,1,653,Other,Exp4a,Implicit
4110,6,60,0,1,0,707,Self,Exp4a,Implicit
4111,1,1,1,1,1,718,Self,Exp4a,Implicit
4111,1,2,1,1,1,874,Other,Exp4a,Implicit
4111,1,3,1,0,1,1074,Self,Exp4a,Implicit
4111,1,4,0,1,1,749,Other,Exp4a,Implicit
4111,1,5,0,1,1,565,Self,Exp4a,Implicit
4111,1,6,2,1,1,599,Other,Exp4a,Implicit
4111,1,7,0,0,1,693,Self,Exp4a,Implicit
4111,1,8,2,0,1,715,Other,Exp4a,Implicit
4111,1,9,2,1,1,613,Self,Exp4a,Implicit
4111,1,10,2,0,1,709,Self,Exp4a,Implicit
4111,1,11,0,0,1,853,Other,Exp4a,Implicit
4111,1,12,1,0,1,614,Other,Exp4a,Implicit
4111,1,13,2,0,1,798,Self,Exp4a,Implicit
4111,1,14,1,1,1,682,Self,Exp4a,Implicit
4111,1,15,2,1,0,790,Other,Exp4a,Implicit
4111,1,17,2,1,1,614,Self,Exp4a,Implicit
4111,1,18,1,1,0,648,Other,Exp4a,Implicit
4111,1,19,2,0,1,788,Other,Exp4a,Implicit
4111,1,20,1,0,0,543,Self,Exp4a,Implicit
4111,1,21,0,1,1,807,Self,Exp4a,Implicit
4111,1,22,1,0,1,951,Other,Exp4a,Implicit
4111,1,23,0,1,0,683,Other,Exp4a,Implicit
4111,1,24,0,0,1,826,Self,Exp4a,Implicit
4111,1,25,0,1,1,676,Self,Exp4a,Implicit
4111,1,26,2,1,1,718,Other,Exp4a,Implicit
4111,1,27,1,1,1,890,Self,Exp4a,Implicit
4111,1,28,0,0,1,867,Self,Exp4a,Implicit
4111,1,29,2,0,0,895,Other,Exp4a,Implicit
4111,1,30,2,0,1,1059,Self,Exp4a,Implicit
4111,1,31,1,0,1,817,Other,Exp4a,Implicit
4111,1,32,0,1,0,625,Other,Exp4a,Implicit
4111,1,33,1,0,1,731,Self,Exp4a,Implicit
4111,1,34,0,0,1,1093,Other,Exp4a,Implicit
4111,1,35,1,1,0,989,Other,Exp4a,Implicit
4111,1,36,2,1,1,727,Self,Exp4a,Implicit
4111,1,37,1,1,1,587,Self,Exp4a,Implicit
4111,1,38,2,1,1,590,Self,Exp4a,Implicit
4111,1,39,1,1,0,578,Other,Exp4a,Implicit
4111,1,40,2,1,1,902,Other,Exp4a,Implicit
4111,1,41,2,0,1,764,Other,Exp4a,Implicit
4111,1,42,1,0,1,874,Self,Exp4a,Implicit
4111,1,43,0,0,1,982,Self,Exp4a,Implicit
4111,1,44,1,0,1,858,Other,Exp4a,Implicit
4111,1,45,0,0,1,691,Other,Exp4a,Implicit
4111,1,46,2,0,1,883,Self,Exp4a,Implicit
4111,1,47,0,1,1,811,Self,Exp4a,Implicit
4111,1,48,0,1,1,803,Other,Exp4a,Implicit
4111,1,49,2,1,1,607,Other,Exp4a,Implicit
4111,1,50,2,0,1,589,Other,Exp4a,Implicit
4111,1,51,2,0,0,683,Self,Exp4a,Implicit
4111,1,52,1,0,1,821,Other,Exp4a,Implicit
4111,1,53,0,1,1,601,Self,Exp4a,Implicit
4111,1,54,0,1,0,747,Other,Exp4a,Implicit
4111,1,55,1,0,0,788,Self,Exp4a,Implicit
4111,1,56,0,0,1,942,Other,Exp4a,Implicit
4111,1,57,2,1,1,680,Self,Exp4a,Implicit
4111,1,58,1,1,0,928,Other,Exp4a,Implicit
4111,1,59,0,0,1,668,Self,Exp4a,Implicit
4111,1,60,1,1,1,702,Self,Exp4a,Implicit
4111,2,1,0,0,1,892,Other,Exp4a,Implicit
4111,2,2,1,0,1,778,Self,Exp4a,Implicit
4111,2,3,1,1,1,768,Self,Exp4a,Implicit
4111,2,4,2,0,1,798,Self,Exp4a,Implicit
4111,2,5,0,0,1,610,Self,Exp4a,Implicit
4111,2,6,2,1,1,666,Self,Exp4a,Implicit
4111,2,7,1,0,1,887,Other,Exp4a,Implicit
4111,2,8,2,1,0,709,Other,Exp4a,Implicit
4111,2,9,0,1,1,651,Other,Exp4a,Implicit
4111,2,10,1,1,1,529,Other,Exp4a,Implicit
4111,2,11,2,0,1,633,Other,Exp4a,Implicit
4111,2,12,0,1,1,819,Self,Exp4a,Implicit
4111,2,13,2,1,1,939,Self,Exp4a,Implicit
4111,2,14,1,0,1,723,Self,Exp4a,Implicit
4111,2,15,1,1,1,491,Self,Exp4a,Implicit
4111,2,16,0,1,1,564,Self,Exp4a,Implicit
4111,2,17,2,0,1,596,Self,Exp4a,Implicit
4111,2,18,0,0,1,788,Self,Exp4a,Implicit
4111,2,19,1,1,1,748,Other,Exp4a,Implicit
4111,2,20,2,0,1,692,Other,Exp4a,Implicit
4111,2,21,0,0,1,632,Other,Exp4a,Implicit
4111,2,22,1,0,1,624,Other,Exp4a,Implicit
4111,2,23,0,1,1,736,Other,Exp4a,Implicit
4111,2,24,2,1,1,774,Other,Exp4a,Implicit
4111,2,25,2,1,1,609,Other,Exp4a,Implicit
4111,2,26,0,0,1,627,Other,Exp4a,Implicit
4111,2,27,1,0,1,875,Other,Exp4a,Implicit
4111,2,28,2,0,1,663,Other,Exp4a,Implicit
4111,2,29,0,0,0,397,Self,Exp4a,Implicit
4111,2,30,0,1,1,599,Self,Exp4a,Implicit
4111,2,31,1,0,1,543,Self,Exp4a,Implicit
4111,2,32,1,1,1,692,Self,Exp4a,Implicit
4111,2,33,1,1,1,826,Other,Exp4a,Implicit
4111,2,34,2,0,1,716,Self,Exp4a,Implicit
4111,2,35,0,1,0,962,Other,Exp4a,Implicit
4111,2,36,2,1,1,1086,Self,Exp4a,Implicit
4111,2,37,0,1,1,588,Self,Exp4a,Implicit
4111,2,38,2,1,1,538,Self,Exp4a,Implicit
4111,2,39,2,0,1,404,Self,Exp4a,Implicit
4111,2,40,1,0,1,771,Self,Exp4a,Implicit
4111,2,41,2,1,1,703,Other,Exp4a,Implicit
4111,2,42,1,1,1,744,Other,Exp4a,Implicit
4111,2,43,1,1,1,598,Self,Exp4a,Implicit
4111,2,44,2,0,1,618,Other,Exp4a,Implicit
4111,2,45,0,0,1,666,Other,Exp4a,Implicit
4111,2,46,1,0,1,742,Other,Exp4a,Implicit
4111,2,47,0,1,1,658,Other,Exp4a,Implicit
4111,2,48,0,0,1,748,Self,Exp4a,Implicit
4111,2,49,0,0,1,714,Self,Exp4a,Implicit
4111,2,50,2,0,1,741,Other,Exp4a,Implicit
4111,2,51,1,1,1,807,Other,Exp4a,Implicit
4111,2,52,2,0,1,691,Self,Exp4a,Implicit
4111,2,53,1,1,1,605,Self,Exp4a,Implicit
4111,2,54,2,1,1,605,Self,Exp4a,Implicit
4111,2,55,0,1,0,781,Other,Exp4a,Implicit
4111,2,56,1,0,1,755,Self,Exp4a,Implicit
4111,2,57,2,1,1,872,Other,Exp4a,Implicit
4111,2,58,1,0,1,664,Other,Exp4a,Implicit
4111,2,59,0,0,0,1008,Other,Exp4a,Implicit
4111,2,60,0,1,1,870,Self,Exp4a,Implicit
4111,3,1,0,1,1,642,Self,Exp4a,Implicit
4111,3,2,2,1,1,742,Other,Exp4a,Implicit
4111,3,3,1,1,1,613,Self,Exp4a,Implicit
4111,3,4,2,0,1,723,Self,Exp4a,Implicit
4111,3,5,0,0,1,919,Other,Exp4a,Implicit
4111,3,6,2,0,1,581,Other,Exp4a,Implicit
4111,3,7,1,0,1,693,Other,Exp4a,Implicit
4111,3,8,2,1,1,517,Self,Exp4a,Implicit
4111,3,9,0,1,0,911,Other,Exp4a,Implicit
4111,3,10,1,1,1,675,Other,Exp4a,Implicit
4111,3,11,0,0,1,741,Self,Exp4a,Implicit
4111,3,12,1,0,1,692,Self,Exp4a,Implicit
4111,3,13,2,1,1,550,Self,Exp4a,Implicit
4111,3,14,0,1,1,724,Other,Exp4a,Implicit
4111,3,15,2,0,1,687,Self,Exp4a,Implicit
4111,3,16,0,1,1,533,Self,Exp4a,Implicit
4111,3,17,2,1,1,959,Other,Exp4a,Implicit
4111,3,18,1,0,1,827,Self,Exp4a,Implicit
4111,3,19,0,0,1,711,Other,Exp4a,Implicit
4111,3,20,2,0,0,890,Other,Exp4a,Implicit
4111,3,21,1,1,1,718,Self,Exp4a,Implicit
4111,3,22,0,0,1,662,Self,Exp4a,Implicit
4111,3,23,1,0,1,836,Other,Exp4a,Implicit
4111,3,24,1,1,0,772,Other,Exp4a,Implicit
4111,3,25,2,1,1,634,Self,Exp4a,Implicit
4111,3,26,2,0,1,758,Self,Exp4a,Implicit
4111,3,27,1,1,1,638,Self,Exp4a,Implicit
4111,3,28,0,1,1,666,Self,Exp4a,Implicit
4111,3,30,1,1,0,201,Other,Exp4a,Implicit
4111,3,31,2,1,1,655,Other,Exp4a,Implicit
4111,3,32,0,0,1,735,Other,Exp4a,Implicit
4111,3,33,1,0,1,799,Self,Exp4a,Implicit
4111,3,34,1,0,1,629,Other,Exp4a,Implicit
4111,3,35,2,0,1,549,Other,Exp4a,Implicit
4111,3,36,0,1,1,841,Other,Exp4a,Implicit
4111,3,37,1,1,1,874,Other,Exp4a,Implicit
4111,3,38,2,1,1,630,Other,Exp4a,Implicit
4111,3,39,2,1,1,684,Self,Exp4a,Implicit
4111,3,40,0,1,1,574,Self,Exp4a,Implicit
4111,3,41,2,0,0,612,Other,Exp4a,Implicit
4111,3,42,1,1,1,726,Self,Exp4a,Implicit
4111,3,43,1,0,1,704,Other,Exp4a,Implicit
4111,3,46,1,0,0,779,Self,Exp4a,Implicit
4111,3,48,0,1,0,777,Other,Exp4a,Implicit
4111,3,49,2,0,1,1059,Other,Exp4a,Implicit
4111,3,50,2,1,1,585,Self,Exp4a,Implicit
4111,3,51,1,0,1,749,Self,Exp4a,Implicit
4111,3,52,2,1,1,703,Other,Exp4a,Implicit
4111,3,53,1,0,1,890,Other,Exp4a,Implicit
4111,3,54,2,0,1,627,Self,Exp4a,Implicit
4111,3,55,0,1,1,665,Self,Exp4a,Implicit
4111,3,56,0,0,1,691,Self,Exp4a,Implicit
4111,3,57,0,1,1,811,Other,Exp4a,Implicit
4111,3,58,1,1,1,585,Other,Exp4a,Implicit
4111,3,59,0,0,1,661,Other,Exp4a,Implicit
4111,3,60,1,1,1,705,Self,Exp4a,Implicit
4111,4,1,2,0,1,726,Other,Exp4a,Implicit
4111,4,2,1,1,1,891,Self,Exp4a,Implicit
4111,4,3,1,1,1,849,Other,Exp4a,Implicit
4111,4,4,2,1,1,695,Other,Exp4a,Implicit
4111,4,5,0,0,1,857,Self,Exp4a,Implicit
4111,4,6,0,1,1,617,Self,Exp4a,Implicit
4111,4,7,0,1,1,853,Other,Exp4a,Implicit
4111,4,8,0,0,1,725,Other,Exp4a,Implicit
4111,4,9,2,1,1,589,Self,Exp4a,Implicit
4111,4,10,1,0,1,877,Self,Exp4a,Implicit
4111,4,11,1,0,1,851,Other,Exp4a,Implicit
4111,4,12,2,0,1,754,Self,Exp4a,Implicit
4111,4,13,2,1,1,676,Other,Exp4a,Implicit
4111,4,14,1,1,1,658,Other,Exp4a,Implicit
4111,4,15,2,1,1,764,Self,Exp4a,Implicit
4111,4,16,0,1,1,656,Self,Exp4a,Implicit
4111,4,17,2,0,1,654,Other,Exp4a,Implicit
4111,4,19,0,0,1,1088,Other,Exp4a,Implicit
4111,4,20,0,1,1,783,Other,Exp4a,Implicit
4111,4,21,1,0,1,659,Self,Exp4a,Implicit
4111,4,22,2,0,1,647,Self,Exp4a,Implicit
4111,4,23,1,1,1,519,Self,Exp4a,Implicit
4111,4,24,1,0,1,731,Other,Exp4a,Implicit
4111,4,25,0,0,1,663,Other,Exp4a,Implicit
4111,4,26,0,0,1,706,Self,Exp4a,Implicit
4111,4,27,0,1,1,682,Self,Exp4a,Implicit
4111,4,28,2,1,1,689,Self,Exp4a,Implicit
4111,4,29,1,0,1,723,Other,Exp4a,Implicit
4111,4,30,0,1,1,925,Other,Exp4a,Implicit
4111,4,31,1,0,1,801,Self,Exp4a,Implicit
4111,4,32,2,0,1,757,Self,Exp4a,Implicit
4111,4,33,2,1,0,743,Other,Exp4a,Implicit
4111,4,34,2,0,1,753,Other,Exp4a,Implicit
4111,4,35,1,1,1,617,Self,Exp4a,Implicit
4111,4,36,1,1,1,973,Other,Exp4a,Implicit
4111,4,37,2,0,1,720,Self,Exp4a,Implicit
4111,4,38,1,1,1,759,Other,Exp4a,Implicit
4111,4,39,2,0,1,734,Other,Exp4a,Implicit
4111,4,40,2,1,1,748,Other,Exp4a,Implicit
4111,4,41,1,1,1,718,Self,Exp4a,Implicit
4111,4,42,0,1,1,756,Self,Exp4a,Implicit
4111,4,43,0,1,1,882,Other,Exp4a,Implicit
4111,4,44,0,0,1,840,Self,Exp4a,Implicit
4111,4,45,2,1,1,894,Self,Exp4a,Implicit
4111,4,46,1,0,1,801,Other,Exp4a,Implicit
4111,4,47,0,0,1,961,Other,Exp4a,Implicit
4111,4,48,1,0,1,1093,Self,Exp4a,Implicit
4111,4,49,1,0,1,799,Other,Exp4a,Implicit
4111,4,50,0,0,1,779,Self,Exp4a,Implicit
4111,4,51,2,0,1,907,Other,Exp4a,Implicit
4111,4,52,1,1,1,765,Self,Exp4a,Implicit
4111,4,53,2,1,1,705,Other,Exp4a,Implicit
4111,4,54,0,1,1,684,Other,Exp4a,Implicit
4111,4,55,1,1,1,747,Other,Exp4a,Implicit
4111,4,56,0,1,1,818,Self,Exp4a,Implicit
4111,4,57,0,0,1,838,Other,Exp4a,Implicit
4111,4,58,2,0,0,836,Self,Exp4a,Implicit
4111,4,59,2,1,1,1002,Self,Exp4a,Implicit
4111,4,60,1,0,1,956,Self,Exp4a,Implicit
4111,5,1,1,0,1,711,Other,Exp4a,Implicit
4111,5,2,0,1,1,897,Other,Exp4a,Implicit
4111,5,3,0,0,1,717,Other,Exp4a,Implicit
4111,5,4,1,1,1,615,Self,Exp4a,Implicit
4111,5,5,2,0,1,809,Other,Exp4a,Implicit
4111,5,6,0,0,1,741,Self,Exp4a,Implicit
4111,5,7,1,1,1,723,Other,Exp4a,Implicit
4111,5,8,0,1,1,607,Self,Exp4a,Implicit
4111,5,9,2,0,1,932,Self,Exp4a,Implicit
4111,5,10,2,1,0,598,Other,Exp4a,Implicit
4111,5,11,1,0,1,856,Self,Exp4a,Implicit
4111,5,12,2,1,1,776,Self,Exp4a,Implicit
4111,5,13,2,0,1,864,Other,Exp4a,Implicit
4111,5,14,0,0,1,810,Other,Exp4a,Implicit
4111,5,15,1,0,1,704,Other,Exp4a,Implicit
4111,5,16,1,1,1,790,Self,Exp4a,Implicit
4111,5,17,0,1,1,913,Other,Exp4a,Implicit
4111,5,18,1,0,1,849,Self,Exp4a,Implicit
4111,5,19,2,1,1,967,Other,Exp4a,Implicit
4111,5,21,0,0,1,1027,Self,Exp4a,Implicit
4111,5,22,0,1,1,783,Self,Exp4a,Implicit
4111,5,23,2,1,1,673,Self,Exp4a,Implicit
4111,5,24,1,1,1,779,Other,Exp4a,Implicit
4111,5,25,1,0,1,785,Self,Exp4a,Implicit
4111,5,26,0,0,1,1034,Other,Exp4a,Implicit
4111,5,27,2,0,1,740,Other,Exp4a,Implicit
4111,5,28,2,1,1,518,Self,Exp4a,Implicit
4111,5,29,0,1,1,768,Self,Exp4a,Implicit
4111,5,30,0,1,1,704,Other,Exp4a,Implicit
4111,5,31,1,0,1,756,Other,Exp4a,Implicit
4111,5,32,2,0,1,868,Self,Exp4a,Implicit
4111,5,33,1,1,1,795,Other,Exp4a,Implicit
4111,5,34,0,0,1,1006,Self,Exp4a,Implicit
4111,5,35,2,1,1,758,Other,Exp4a,Implicit
4111,5,36,1,1,1,682,Self,Exp4a,Implicit
4111,5,37,1,1,1,682,Self,Exp4a,Implicit
4111,5,38,1,0,1,706,Other,Exp4a,Implicit
4111,5,39,2,1,1,798,Self,Exp4a,Implicit
4111,5,40,0,1,1,570,Self,Exp4a,Implicit
4111,5,41,0,0,1,658,Self,Exp4a,Implicit
4111,5,42,2,0,1,774,Self,Exp4a,Implicit
4111,5,43,2,0,1,767,Other,Exp4a,Implicit
4111,5,44,1,0,1,883,Self,Exp4a,Implicit
4111,5,45,1,1,1,725,Other,Exp4a,Implicit
4111,5,46,2,1,1,617,Other,Exp4a,Implicit
4111,5,47,0,0,1,785,Other,Exp4a,Implicit
4111,5,48,0,1,0,763,Other,Exp4a,Implicit
4111,5,49,0,1,1,665,Self,Exp4a,Implicit
4111,5,50,1,1,1,669,Other,Exp4a,Implicit
4111,5,51,0,1,1,673,Other,Exp4a,Implicit
4111,5,52,2,1,1,577,Other,Exp4a,Implicit
4111,5,53,0,0,1,668,Other,Exp4a,Implicit
4111,5,54,1,1,1,634,Self,Exp4a,Implicit
4111,5,55,2,1,1,688,Self,Exp4a,Implicit
4111,5,56,1,0,1,668,Other,Exp4a,Implicit
4111,5,57,1,0,1,828,Self,Exp4a,Implicit
4111,5,58,2,0,1,704,Self,Exp4a,Implicit
4111,5,59,2,0,0,714,Other,Exp4a,Implicit
4111,5,60,0,0,1,780,Self,Exp4a,Implicit
4111,6,1,2,1,1,761,Other,Exp4a,Implicit
4111,6,2,1,1,1,1095,Self,Exp4a,Implicit
4111,6,3,2,1,0,739,Self,Exp4a,Implicit
4111,6,4,0,0,1,866,Self,Exp4a,Implicit
4111,6,5,1,1,1,678,Other,Exp4a,Implicit
4111,6,6,0,1,1,722,Self,Exp4a,Implicit
4111,6,7,0,1,1,778,Other,Exp4a,Implicit
4111,6,8,0,0,1,692,Other,Exp4a,Implicit
4111,6,9,2,0,1,912,Other,Exp4a,Implicit
4111,6,10,1,0,1,614,Other,Exp4a,Implicit
4111,6,11,1,0,1,883,Self,Exp4a,Implicit
4111,6,12,2,0,1,703,Self,Exp4a,Implicit
4111,6,13,2,0,1,761,Other,Exp4a,Implicit
4111,6,14,2,0,1,867,Self,Exp4a,Implicit
4111,6,15,0,1,1,765,Self,Exp4a,Implicit
4111,6,16,2,1,1,755,Other,Exp4a,Implicit
4111,6,17,1,1,1,855,Other,Exp4a,Implicit
4111,6,18,0,0,1,721,Other,Exp4a,Implicit
4111,6,19,0,1,1,743,Other,Exp4a,Implicit
4111,6,20,1,0,1,666,Other,Exp4a,Implicit
4111,6,21,1,1,1,582,Self,Exp4a,Implicit
4111,6,22,1,0,1,682,Self,Exp4a,Implicit
4111,6,23,0,0,1,624,Self,Exp4a,Implicit
4111,6,24,2,1,1,620,Self,Exp4a,Implicit
4111,6,25,2,1,1,676,Other,Exp4a,Implicit
4111,6,26,1,1,1,664,Other,Exp4a,Implicit
4111,6,27,1,0,1,856,Other,Exp4a,Implicit
4111,6,28,1,0,1,961,Self,Exp4a,Implicit
4111,6,29,1,1,1,649,Self,Exp4a,Implicit
4111,6,30,0,1,1,655,Self,Exp4a,Implicit
4111,6,31,0,1,1,821,Other,Exp4a,Implicit
4111,6,32,0,0,1,759,Self,Exp4a,Implicit
4111,6,33,2,1,1,717,Self,Exp4a,Implicit
4111,6,34,0,0,1,897,Other,Exp4a,Implicit
4111,6,35,2,0,0,765,Self,Exp4a,Implicit
4111,6,36,2,0,1,825,Other,Exp4a,Implicit
4111,6,38,0,0,1,707,Other,Exp4a,Implicit
4111,6,39,1,1,1,759,Other,Exp4a,Implicit
4111,6,40,0,0,1,721,Self,Exp4a,Implicit
4111,6,41,1,0,1,851,Self,Exp4a,Implicit
4111,6,42,2,0,1,843,Other,Exp4a,Implicit
4111,6,43,1,0,1,609,Other,Exp4a,Implicit
4111,6,44,2,0,1,823,Self,Exp4a,Implicit
4111,6,45,2,1,1,705,Self,Exp4a,Implicit
4111,6,46,2,1,1,736,Other,Exp4a,Implicit
4111,6,47,0,1,0,804,Self,Exp4a,Implicit
4111,6,48,1,1,1,672,Self,Exp4a,Implicit
4111,6,49,2,1,1,480,Self,Exp4a,Implicit
4111,6,50,0,0,0,534,Other,Exp4a,Implicit
4111,6,51,0,1,0,978,Other,Exp4a,Implicit
4111,6,53,0,0,1,810,Self,Exp4a,Implicit
4111,6,54,2,0,1,874,Other,Exp4a,Implicit
4111,6,55,1,1,1,639,Self,Exp4a,Implicit
4111,6,56,1,1,1,881,Other,Exp4a,Implicit
4111,6,57,0,1,0,689,Self,Exp4a,Implicit
4111,6,58,2,1,1,855,Other,Exp4a,Implicit
4111,6,59,1,0,1,767,Self,Exp4a,Implicit
4111,6,60,2,0,1,1015,Self,Exp4a,Implicit
4112,1,1,1,1,1,578,Self,Exp4a,Implicit
4112,1,2,0,1,0,1033,Self,Exp4a,Implicit
4112,1,4,1,0,0,603,Self,Exp4a,Implicit
4112,1,7,0,0,1,663,Other,Exp4a,Implicit
4112,1,8,0,1,1,1091,Other,Exp4a,Implicit
4112,1,9,2,0,1,711,Self,Exp4a,Implicit
4112,1,10,2,1,1,567,Self,Exp4a,Implicit
4112,1,11,1,1,0,657,Other,Exp4a,Implicit
4112,1,13,2,1,1,598,Self,Exp4a,Implicit
4112,1,14,2,0,1,738,Self,Exp4a,Implicit
4112,1,15,1,1,1,508,Self,Exp4a,Implicit
4112,1,16,2,1,1,1006,Other,Exp4a,Implicit
4112,1,17,0,1,1,640,Self,Exp4a,Implicit
4112,1,20,0,1,0,679,Other,Exp4a,Implicit
4112,1,22,2,0,1,1063,Other,Exp4a,Implicit
4112,1,23,0,0,0,665,Self,Exp4a,Implicit
4112,1,26,2,1,1,629,Other,Exp4a,Implicit
4112,1,27,1,0,1,621,Other,Exp4a,Implicit
4112,1,28,1,0,1,1023,Self,Exp4a,Implicit
4112,1,29,1,1,0,817,Other,Exp4a,Implicit
4112,1,30,1,1,1,1051,Self,Exp4a,Implicit
4112,1,31,2,1,1,839,Self,Exp4a,Implicit
4112,1,34,0,1,0,865,Other,Exp4a,Implicit
4112,1,36,2,0,1,682,Self,Exp4a,Implicit
4112,1,37,2,0,1,938,Other,Exp4a,Implicit
4112,1,38,1,0,1,824,Other,Exp4a,Implicit
4112,1,39,2,1,1,1046,Self,Exp4a,Implicit
4112,1,40,0,1,0,742,Other,Exp4a,Implicit
4112,1,42,0,1,1,750,Self,Exp4a,Implicit
4112,1,45,0,0,1,788,Other,Exp4a,Implicit
4112,1,46,2,0,0,739,Self,Exp4a,Implicit
4112,1,47,2,1,0,645,Other,Exp4a,Implicit
4112,1,48,0,0,1,743,Self,Exp4a,Implicit
4112,1,51,1,0,1,767,Self,Exp4a,Implicit
4112,1,54,2,0,0,813,Self,Exp4a,Implicit
4112,1,56,1,1,0,340,Self,Exp4a,Implicit
4112,1,57,2,1,1,722,Other,Exp4a,Implicit
4112,1,58,0,0,1,796,Other,Exp4a,Implicit
4112,1,59,1,1,0,782,Other,Exp4a,Implicit
4112,1,60,2,1,1,588,Self,Exp4a,Implicit
4112,2,1,0,1,1,788,Self,Exp4a,Implicit
4112,2,2,0,1,0,696,Other,Exp4a,Implicit
4112,2,3,2,0,0,846,Other,Exp4a,Implicit
4112,2,4,1,1,1,560,Self,Exp4a,Implicit
4112,2,5,1,0,1,850,Self,Exp4a,Implicit
4112,2,6,1,1,1,922,Other,Exp4a,Implicit
4112,2,7,2,0,1,934,Self,Exp4a,Implicit
4112,2,9,0,0,0,586,Self,Exp4a,Implicit
4112,2,11,2,1,1,773,Self,Exp4a,Implicit
4112,2,12,2,1,1,1019,Other,Exp4a,Implicit
4112,2,13,2,0,1,631,Other,Exp4a,Implicit
4112,2,14,0,0,1,557,Other,Exp4a,Implicit
4112,2,15,2,1,1,623,Other,Exp4a,Implicit
4112,2,16,1,1,1,721,Self,Exp4a,Implicit
4112,2,17,1,1,0,955,Other,Exp4a,Implicit
4112,2,19,0,0,1,824,Self,Exp4a,Implicit
4112,2,20,1,0,0,642,Self,Exp4a,Implicit
4112,2,22,0,1,1,866,Self,Exp4a,Implicit
4112,2,23,2,0,1,826,Self,Exp4a,Implicit
4112,2,24,1,0,0,850,Other,Exp4a,Implicit
4112,2,25,1,0,1,724,Self,Exp4a,Implicit
4112,2,26,2,0,1,912,Other,Exp4a,Implicit
4112,2,27,2,1,1,687,Self,Exp4a,Implicit
4112,2,28,0,0,1,847,Self,Exp4a,Implicit
4112,2,29,1,1,1,629,Self,Exp4a,Implicit
4112,2,30,2,1,0,580,Other,Exp4a,Implicit
4112,2,31,0,0,1,798,Other,Exp4a,Implicit
4112,2,32,0,1,1,482,Other,Exp4a,Implicit
4112,2,33,2,0,1,702,Self,Exp4a,Implicit
4112,2,34,1,0,0,820,Other,Exp4a,Implicit
4112,2,36,0,1,1,597,Self,Exp4a,Implicit
4112,2,37,2,1,1,649,Other,Exp4a,Implicit
4112,2,38,1,0,1,641,Other,Exp4a,Implicit
4112,2,39,2,0,1,765,Other,Exp4a,Implicit
4112,2,40,0,1,1,549,Self,Exp4a,Implicit
4112,2,41,0,1,1,649,Other,Exp4a,Implicit
4112,2,42,0,0,1,589,Self,Exp4a,Implicit
4112,2,43,1,1,1,707,Self,Exp4a,Implicit
4112,2,44,2,0,0,516,Self,Exp4a,Implicit
4112,2,45,1,0,0,778,Self,Exp4a,Implicit
4112,2,46,0,0,1,876,Other,Exp4a,Implicit
4112,2,47,1,1,1,750,Other,Exp4a,Implicit
4112,2,48,2,1,1,714,Self,Exp4a,Implicit
4112,2,49,1,0,1,706,Self,Exp4a,Implicit
4112,2,50,1,0,1,728,Other,Exp4a,Implicit
4112,2,51,2,1,1,568,Other,Exp4a,Implicit
4112,2,53,0,0,0,913,Self,Exp4a,Implicit
4112,2,54,2,0,1,827,Other,Exp4a,Implicit
4112,2,55,2,1,1,673,Self,Exp4a,Implicit
4112,2,56,1,1,1,935,Other,Exp4a,Implicit
4112,2,57,1,1,1,485,Self,Exp4a,Implicit
4112,2,58,0,1,1,825,Self,Exp4a,Implicit
4112,2,59,2,0,0,489,Self,Exp4a,Implicit
4112,2,60,0,1,1,1072,Other,Exp4a,Implicit
4112,3,1,2,1,1,896,Other,Exp4a,Implicit
4112,3,2,1,0,1,600,Other,Exp4a,Implicit
4112,3,3,2,1,1,646,Self,Exp4a,Implicit
4112,3,4,2,0,1,906,Self,Exp4a,Implicit
4112,3,5,0,1,1,466,Self,Exp4a,Implicit
4112,3,6,1,1,1,506,Self,Exp4a,Implicit
4112,3,7,2,0,1,580,Other,Exp4a,Implicit
4112,3,8,1,0,0,438,Self,Exp4a,Implicit
4112,3,9,0,0,1,734,Self,Exp4a,Implicit
4112,3,10,1,1,1,465,Other,Exp4a,Implicit
4112,3,11,0,1,1,997,Other,Exp4a,Implicit
4112,3,12,0,0,1,607,Other,Exp4a,Implicit
4112,3,13,1,0,1,813,Other,Exp4a,Implicit
4112,3,14,1,1,0,591,Other,Exp4a,Implicit
4112,3,15,0,0,0,565,Self,Exp4a,Implicit
4112,3,16,1,1,1,583,Self,Exp4a,Implicit
4112,3,17,2,0,1,763,Other,Exp4a,Implicit
4112,3,18,1,0,0,654,Self,Exp4a,Implicit
4112,3,22,2,0,1,792,Self,Exp4a,Implicit
4112,3,23,0,0,1,838,Other,Exp4a,Implicit
4112,3,24,2,1,1,626,Self,Exp4a,Implicit
4112,3,25,1,0,1,860,Self,Exp4a,Implicit
4112,3,26,1,0,1,986,Other,Exp4a,Implicit
4112,3,27,0,1,1,704,Self,Exp4a,Implicit
4112,3,28,2,1,1,649,Other,Exp4a,Implicit
4112,3,29,1,1,1,453,Other,Exp4a,Implicit
4112,3,30,0,1,0,647,Other,Exp4a,Implicit
4112,3,31,2,0,0,537,Self,Exp4a,Implicit
4112,3,32,0,0,1,793,Other,Exp4a,Implicit
4112,3,33,0,0,0,519,Self,Exp4a,Implicit
4112,3,34,2,0,0,1073,Other,Exp4a,Implicit
4112,3,35,1,1,1,679,Self,Exp4a,Implicit
4112,3,36,2,1,1,536,Self,Exp4a,Implicit
4112,3,37,1,1,1,892,Other,Exp4a,Implicit
4112,3,38,0,1,1,698,Other,Exp4a,Implicit
4112,3,39,2,1,1,538,Other,Exp4a,Implicit
4112,3,40,2,1,0,754,Self,Exp4a,Implicit
4112,3,41,0,0,1,815,Self,Exp4a,Implicit
4112,3,42,2,0,1,887,Self,Exp4a,Implicit
4112,3,43,0,1,1,505,Self,Exp4a,Implicit
4112,3,44,1,0,0,400,Other,Exp4a,Implicit
4112,3,45,1,1,1,618,Self,Exp4a,Implicit
4112,3,46,1,0,0,598,Self,Exp4a,Implicit
4112,3,47,2,0,1,796,Other,Exp4a,Implicit
4112,3,48,0,0,1,790,Other,Exp4a,Implicit
4112,3,49,1,0,1,458,Other,Exp4a,Implicit
4112,3,50,0,0,1,550,Other,Exp4a,Implicit
4112,3,51,2,0,1,588,Other,Exp4a,Implicit
4112,3,52,2,1,1,990,Other,Exp4a,Implicit
4112,3,53,0,0,1,776,Self,Exp4a,Implicit
4112,3,54,0,1,1,857,Other,Exp4a,Implicit
4112,3,55,2,0,1,713,Self,Exp4a,Implicit
4112,3,56,1,0,0,649,Self,Exp4a,Implicit
4112,3,57,1,1,1,879,Other,Exp4a,Implicit
4112,3,58,2,1,1,621,Self,Exp4a,Implicit
4112,3,59,0,1,1,643,Self,Exp4a,Implicit
4112,3,60,1,1,1,469,Self,Exp4a,Implicit
4112,4,1,1,1,1,1069,Other,Exp4a,Implicit
4112,4,2,2,0,1,673,Other,Exp4a,Implicit
4112,4,3,2,0,0,683,Self,Exp4a,Implicit
4112,4,4,0,0,1,819,Self,Exp4a,Implicit
4112,4,5,2,1,1,513,Self,Exp4a,Implicit
4112,4,6,1,1,1,451,Self,Exp4a,Implicit
4112,4,7,2,1,1,772,Other,Exp4a,Implicit
4112,4,8,0,1,1,632,Other,Exp4a,Implicit
4112,4,9,0,0,1,715,Other,Exp4a,Implicit
4112,4,10,0,1,1,493,Self,Exp4a,Implicit
4112,4,11,1,0,1,743,Self,Exp4a,Implicit
4112,4,12,1,0,1,755,Other,Exp4a,Implicit
4112,4,13,1,1,1,775,Self,Exp4a,Implicit
4112,4,14,0,1,1,513,Self,Exp4a,Implicit
4112,4,15,1,0,1,834,Self,Exp4a,Implicit
4112,4,16,1,1,1,690,Other,Exp4a,Implicit
4112,4,17,2,0,1,752,Other,Exp4a,Implicit
4112,4,18,2,1,1,574,Other,Exp4a,Implicit
4112,4,19,2,1,1,584,Self,Exp4a,Implicit
4112,4,20,0,1,1,1076,Other,Exp4a,Implicit
4112,4,21,2,0,1,676,Self,Exp4a,Implicit
4112,4,22,0,0,1,928,Other,Exp4a,Implicit
4112,4,23,0,0,1,796,Self,Exp4a,Implicit
4112,4,24,1,0,1,1050,Other,Exp4a,Implicit
4112,4,25,2,0,1,775,Self,Exp4a,Implicit
4112,4,27,1,1,1,797,Self,Exp4a,Implicit
4112,4,28,2,1,1,957,Other,Exp4a,Implicit
4112,4,29,1,1,1,545,Other,Exp4a,Implicit
4112,4,30,2,0,1,619,Other,Exp4a,Implicit
4112,4,31,0,1,1,635,Self,Exp4a,Implicit
4112,4,32,0,0,1,975,Self,Exp4a,Implicit
4112,4,33,2,1,1,597,Self,Exp4a,Implicit
4112,4,34,0,1,1,682,Other,Exp4a,Implicit
4112,4,35,1,0,1,654,Self,Exp4a,Implicit
4112,4,36,1,0,0,888,Other,Exp4a,Implicit
4112,4,37,2,1,1,846,Other,Exp4a,Implicit
4112,4,38,2,1,1,648,Self,Exp4a,Implicit
4112,4,39,1,0,1,650,Other,Exp4a,Implicit
4112,4,40,1,0,1,762,Self,Exp4a,Implicit
4112,4,41,1,1,1,572,Self,Exp4a,Implicit
4112,4,42,2,0,1,935,Other,Exp4a,Implicit
4112,4,43,0,0,1,797,Self,Exp4a,Implicit
4112,4,44,0,0,0,789,Other,Exp4a,Implicit
4112,4,45,1,1,1,929,Other,Exp4a,Implicit
4112,4,46,2,0,1,745,Self,Exp4a,Implicit
4112,4,47,0,1,1,963,Other,Exp4a,Implicit
4112,4,48,0,1,1,822,Self,Exp4a,Implicit
4112,4,49,0,1,0,777,Other,Exp4a,Implicit
4112,4,50,0,1,1,763,Self,Exp4a,Implicit
4112,4,51,1,1,1,831,Other,Exp4a,Implicit
4112,4,52,1,1,1,639,Self,Exp4a,Implicit
4112,4,53,0,0,0,709,Self,Exp4a,Implicit
4112,4,54,1,0,0,683,Other,Exp4a,Implicit
4112,4,55,2,1,1,1007,Other,Exp4a,Implicit
4112,4,57,2,0,1,811,Self,Exp4a,Implicit
4112,4,58,1,0,1,999,Self,Exp4a,Implicit
4112,4,59,2,1,1,638,Self,Exp4a,Implicit
4112,4,60,0,0,1,660,Other,Exp4a,Implicit
4112,5,1,0,0,1,949,Other,Exp4a,Implicit
4112,5,2,1,1,1,1099,Other,Exp4a,Implicit
4112,5,3,2,1,1,655,Self,Exp4a,Implicit
4112,5,4,1,1,1,523,Self,Exp4a,Implicit
4112,5,5,2,1,0,469,Other,Exp4a,Implicit
4112,5,6,2,0,1,804,Self,Exp4a,Implicit
4112,5,7,1,0,1,668,Self,Exp4a,Implicit
4112,5,8,0,0,1,602,Self,Exp4a,Implicit
4112,5,9,2,0,1,840,Other,Exp4a,Implicit
4112,5,10,0,1,1,768,Self,Exp4a,Implicit
4112,5,11,1,0,1,984,Other,Exp4a,Implicit
4112,5,12,0,1,1,450,Other,Exp4a,Implicit
4112,5,13,2,1,1,710,Other,Exp4a,Implicit
4112,5,14,1,1,1,582,Self,Exp4a,Implicit
4112,5,15,0,1,1,514,Self,Exp4a,Implicit
4112,5,16,2,1,1,525,Self,Exp4a,Implicit
4112,5,17,0,1,1,633,Other,Exp4a,Implicit
4112,5,18,1,1,1,601,Other,Exp4a,Implicit
4112,5,19,0,0,1,684,Other,Exp4a,Implicit
4112,5,20,1,0,1,592,Other,Exp4a,Implicit
4112,5,21,2,0,1,1024,Self,Exp4a,Implicit
4112,5,22,0,0,1,634,Self,Exp4a,Implicit
4112,5,23,1,0,1,534,Self,Exp4a,Implicit
4112,5,24,2,0,1,828,Other,Exp4a,Implicit
4112,5,25,1,1,1,837,Self,Exp4a,Implicit
4112,5,26,1,1,1,875,Other,Exp4a,Implicit
4112,5,27,2,1,1,687,Other,Exp4a,Implicit
4112,5,28,2,0,1,761,Other,Exp4a,Implicit
4112,5,29,0,1,1,655,Other,Exp4a,Implicit
4112,5,30,0,1,1,1033,Self,Exp4a,Implicit
4112,5,31,0,0,1,895,Self,Exp4a,Implicit
4112,5,32,1,0,0,826,Other,Exp4a,Implicit
4112,5,33,0,0,1,995,Other,Exp4a,Implicit
4112,5,34,1,0,1,828,Self,Exp4a,Implicit
4112,5,35,2,1,0,952,Self,Exp4a,Implicit
4112,5,36,2,0,1,654,Self,Exp4a,Implicit
4112,5,37,0,0,1,640,Self,Exp4a,Implicit
4112,5,40,0,1,1,702,Self,Exp4a,Implicit
4112,5,41,1,1,1,555,Self,Exp4a,Implicit
4112,5,42,2,1,1,551,Self,Exp4a,Implicit
4112,5,44,0,0,0,377,Other,Exp4a,Implicit
4112,5,45,2,0,1,761,Self,Exp4a,Implicit
4112,5,46,1,0,0,573,Self,Exp4a,Implicit
4112,5,47,2,1,1,771,Other,Exp4a,Implicit
4112,5,48,1,0,1,989,Other,Exp4a,Implicit
4112,5,50,1,1,1,672,Self,Exp4a,Implicit
4112,5,51,0,0,1,830,Self,Exp4a,Implicit
4112,5,52,2,0,1,914,Other,Exp4a,Implicit
4112,5,53,0,1,1,640,Self,Exp4a,Implicit
4112,5,54,2,1,1,598,Self,Exp4a,Implicit
4112,5,55,2,0,1,882,Self,Exp4a,Implicit
4112,5,56,2,1,1,1020,Other,Exp4a,Implicit
4112,5,57,0,1,1,840,Other,Exp4a,Implicit
4112,5,58,1,0,0,730,Self,Exp4a,Implicit
4112,5,59,0,0,0,736,Other,Exp4a,Implicit
4112,5,60,1,0,1,688,Other,Exp4a,Implicit
4112,6,1,0,1,1,982,Other,Exp4a,Implicit
4112,6,2,0,0,1,658,Other,Exp4a,Implicit
4112,6,3,2,1,1,504,Other,Exp4a,Implicit
4112,6,4,1,0,1,637,Self,Exp4a,Implicit
4112,6,5,2,1,1,661,Self,Exp4a,Implicit
4112,6,6,0,0,1,709,Self,Exp4a,Implicit
4112,6,7,2,0,1,763,Self,Exp4a,Implicit
4112,6,8,0,1,1,429,Self,Exp4a,Implicit
4112,6,9,1,1,1,657,Other,Exp4a,Implicit
4112,6,10,1,1,1,603,Self,Exp4a,Implicit
4112,6,11,2,0,1,675,Other,Exp4a,Implicit
4112,6,12,1,0,1,877,Other,Exp4a,Implicit
4112,6,13,1,0,1,440,Other,Exp4a,Implicit
4112,6,14,0,1,1,508,Other,Exp4a,Implicit
4112,6,15,2,1,1,626,Other,Exp4a,Implicit
4112,6,16,1,1,1,564,Other,Exp4a,Implicit
4112,6,17,0,0,1,662,Self,Exp4a,Implicit
4112,6,18,1,1,0,405,Self,Exp4a,Implicit
4112,6,19,2,1,1,483,Self,Exp4a,Implicit
4112,6,20,1,0,1,757,Self,Exp4a,Implicit
4112,6,21,0,0,1,879,Other,Exp4a,Implicit
4112,6,22,0,1,0,720,Self,Exp4a,Implicit
4112,6,23,2,0,1,642,Self,Exp4a,Implicit
4112,6,24,2,0,1,808,Other,Exp4a,Implicit
4112,6,25,1,0,1,710,Other,Exp4a,Implicit
4112,6,26,1,0,1,702,Self,Exp4a,Implicit
4112,6,27,0,0,1,550,Self,Exp4a,Implicit
4112,6,28,0,0,1,700,Other,Exp4a,Implicit
4112,6,29,1,1,1,509,Other,Exp4a,Implicit
4112,6,30,2,0,1,917,Self,Exp4a,Implicit
4112,6,31,1,1,1,747,Self,Exp4a,Implicit
4112,6,32,2,0,1,527,Other,Exp4a,Implicit
4112,6,33,0,1,1,669,Self,Exp4a,Implicit
4112,6,34,2,1,1,877,Other,Exp4a,Implicit
4112,6,35,2,1,1,755,Self,Exp4a,Implicit
4112,6,36,0,1,1,671,Other,Exp4a,Implicit
4112,6,37,0,0,1,887,Other,Exp4a,Implicit
4112,6,38,0,1,1,676,Other,Exp4a,Implicit
4112,6,39,2,0,0,658,Self,Exp4a,Implicit
4112,6,40,2,1,1,968,Other,Exp4a,Implicit
4112,6,41,1,0,1,886,Other,Exp4a,Implicit
4112,6,43,0,1,1,944,Self,Exp4a,Implicit
4112,6,44,2,1,1,742,Self,Exp4a,Implicit
4112,6,45,1,1,1,784,Other,Exp4a,Implicit
4112,6,46,0,0,0,812,Self,Exp4a,Implicit
4112,6,47,2,0,0,638,Other,Exp4a,Implicit
4112,6,48,1,1,1,727,Self,Exp4a,Implicit
4112,6,49,1,0,1,635,Other,Exp4a,Implicit
4112,6,50,1,0,1,847,Self,Exp4a,Implicit
4112,6,51,0,1,1,1035,Other,Exp4a,Implicit
4112,6,52,0,0,1,821,Self,Exp4a,Implicit
4112,6,53,1,1,1,767,Self,Exp4a,Implicit
4112,6,54,0,1,1,537,Self,Exp4a,Implicit
4112,6,55,2,0,1,544,Other,Exp4a,Implicit
4112,6,56,2,1,1,726,Self,Exp4a,Implicit
4112,6,57,2,0,1,848,Self,Exp4a,Implicit
4112,6,58,2,1,1,511,Other,Exp4a,Implicit
4112,6,59,1,1,1,789,Other,Exp4a,Implicit
4112,6,60,0,0,1,645,Other,Exp4a,Implicit
4113,1,1,0,1,1,641,Self,Exp4a,Implicit
4113,1,2,1,0,1,691,Other,Exp4a,Implicit
4113,1,3,0,0,1,674,Self,Exp4a,Implicit
4113,1,4,1,0,1,866,Self,Exp4a,Implicit
4113,1,5,2,0,1,608,Self,Exp4a,Implicit
4113,1,6,0,0,1,660,Other,Exp4a,Implicit
4113,1,7,1,1,1,666,Other,Exp4a,Implicit
4113,1,8,2,1,1,536,Other,Exp4a,Implicit
4113,1,9,2,0,1,638,Other,Exp4a,Implicit
4113,1,10,1,1,1,527,Self,Exp4a,Implicit
4113,1,11,2,1,1,503,Self,Exp4a,Implicit
4113,1,12,0,1,0,493,Other,Exp4a,Implicit
4113,1,13,2,1,1,445,Self,Exp4a,Implicit
4113,1,14,1,0,0,425,Other,Exp4a,Implicit
4113,1,15,0,1,1,762,Other,Exp4a,Implicit
4113,1,16,2,1,1,646,Other,Exp4a,Implicit
4113,1,17,0,0,1,700,Self,Exp4a,Implicit
4113,1,18,2,0,1,768,Self,Exp4a,Implicit
4113,1,19,2,0,1,574,Other,Exp4a,Implicit
4113,1,20,1,1,1,542,Self,Exp4a,Implicit
4113,1,21,0,1,1,518,Self,Exp4a,Implicit
4113,1,22,1,0,1,583,Self,Exp4a,Implicit
4113,1,23,0,0,0,445,Other,Exp4a,Implicit
4113,1,24,1,1,1,637,Other,Exp4a,Implicit
4113,1,25,0,0,1,552,Self,Exp4a,Implicit
4113,1,26,1,1,1,514,Self,Exp4a,Implicit
4113,1,27,2,0,1,585,Self,Exp4a,Implicit
4113,1,28,2,0,1,587,Other,Exp4a,Implicit
4113,1,29,1,0,1,629,Other,Exp4a,Implicit
4113,1,30,0,1,1,595,Other,Exp4a,Implicit
4113,1,31,2,1,1,535,Self,Exp4a,Implicit
4113,1,32,1,1,1,681,Other,Exp4a,Implicit
4113,1,33,0,0,1,562,Other,Exp4a,Implicit
4113,1,34,0,1,1,568,Self,Exp4a,Implicit
4113,1,35,1,0,1,640,Self,Exp4a,Implicit
4113,1,36,2,1,1,564,Other,Exp4a,Implicit
4113,1,37,0,0,1,608,Other,Exp4a,Implicit
4113,1,38,0,0,1,640,Self,Exp4a,Implicit
4113,1,39,2,1,1,601,Other,Exp4a,Implicit
4113,1,40,2,0,1,515,Other,Exp4a,Implicit
4113,1,41,0,1,1,657,Self,Exp4a,Implicit
4113,1,42,1,1,1,569,Other,Exp4a,Implicit
4113,1,43,1,0,1,569,Other,Exp4a,Implicit
4113,1,44,2,1,1,509,Self,Exp4a,Implicit
4113,1,45,0,1,1,516,Other,Exp4a,Implicit
4113,1,46,1,0,1,496,Self,Exp4a,Implicit
4113,1,47,1,1,1,456,Self,Exp4a,Implicit
4113,1,48,2,0,1,598,Self,Exp4a,Implicit
4113,1,49,2,0,1,496,Other,Exp4a,Implicit
4113,1,50,2,1,1,576,Other,Exp4a,Implicit
4113,1,51,2,0,1,720,Self,Exp4a,Implicit
4113,1,52,1,0,1,637,Other,Exp4a,Implicit
4113,1,53,2,1,1,522,Self,Exp4a,Implicit
4113,1,54,1,1,0,588,Self,Exp4a,Implicit
4113,1,55,1,0,0,686,Self,Exp4a,Implicit
4113,1,56,0,0,1,580,Self,Exp4a,Implicit
4113,1,57,0,1,1,362,Self,Exp4a,Implicit
4113,1,58,0,0,1,601,Other,Exp4a,Implicit
4113,1,59,1,1,1,513,Other,Exp4a,Implicit
4113,1,60,0,1,0,485,Other,Exp4a,Implicit
4113,2,1,2,0,1,743,Self,Exp4a,Implicit
4113,2,2,0,0,1,623,Self,Exp4a,Implicit
4113,2,3,2,0,0,533,Other,Exp4a,Implicit
4113,2,4,0,0,1,571,Other,Exp4a,Implicit
4113,2,5,1,1,1,498,Other,Exp4a,Implicit
4113,2,6,0,1,1,472,Self,Exp4a,Implicit
4113,2,7,1,0,1,522,Other,Exp4a,Implicit
4113,2,8,2,1,1,800,Other,Exp4a,Implicit
4113,2,9,2,1,1,540,Self,Exp4a,Implicit
4113,2,10,1,1,1,548,Self,Exp4a,Implicit
4113,2,11,1,0,1,619,Self,Exp4a,Implicit
4113,2,12,0,1,0,432,Other,Exp4a,Implicit
4113,2,13,1,1,1,398,Self,Exp4a,Implicit
4113,2,14,2,0,1,644,Other,Exp4a,Implicit
4113,2,15,0,0,1,706,Self,Exp4a,Implicit
4113,2,16,1,1,1,696,Other,Exp4a,Implicit
4113,2,17,2,0,0,404,Self,Exp4a,Implicit
4113,2,18,1,0,1,589,Self,Exp4a,Implicit
4113,2,19,0,0,1,745,Other,Exp4a,Implicit
4113,2,20,0,1,1,599,Other,Exp4a,Implicit
4113,2,21,0,1,0,513,Self,Exp4a,Implicit
4113,2,22,2,1,1,565,Other,Exp4a,Implicit
4113,2,23,2,1,1,701,Self,Exp4a,Implicit
4113,2,24,1,0,1,526,Other,Exp4a,Implicit
4113,2,25,0,1,1,432,Self,Exp4a,Implicit
4113,2,26,1,1,1,372,Other,Exp4a,Implicit
4113,2,27,1,0,0,418,Other,Exp4a,Implicit
4113,2,28,0,1,1,640,Other,Exp4a,Implicit
4113,2,29,1,1,1,529,Self,Exp4a,Implicit
4113,2,30,2,0,1,483,Other,Exp4a,Implicit
4113,2,31,2,1,1,567,Other,Exp4a,Implicit
4113,2,32,2,1,0,535,Self,Exp4a,Implicit
4113,2,33,2,0,1,695,Self,Exp4a,Implicit
4113,2,34,0,0,1,849,Other,Exp4a,Implicit
4113,2,35,0,0,1,605,Self,Exp4a,Implicit
4113,2,36,1,0,1,810,Self,Exp4a,Implicit
4113,2,37,0,1,0,616,Self,Exp4a,Implicit
4113,2,38,0,0,1,733,Self,Exp4a,Implicit
4113,2,39,1,1,1,503,Other,Exp4a,Implicit
4113,2,40,1,1,1,355,Self,Exp4a,Implicit
4113,2,41,0,0,1,568,Other,Exp4a,Implicit
4113,2,42,2,1,1,634,Other,Exp4a,Implicit
4113,2,43,2,1,1,404,Self,Exp4a,Implicit
4113,2,44,2,0,1,610,Other,Exp4a,Implicit
4113,2,45,1,0,1,664,Self,Exp4a,Implicit
4113,2,46,1,0,1,612,Other,Exp4a,Implicit
4113,2,47,2,0,1,710,Self,Exp4a,Implicit
4113,2,48,0,1,1,557,Other,Exp4a,Implicit
4113,2,49,0,0,1,627,Other,Exp4a,Implicit
4113,2,50,2,0,0,475,Other,Exp4a,Implicit
4113,2,51,1,0,1,635,Self,Exp4a,Implicit
4113,2,52,0,1,1,519,Self,Exp4a,Implicit
4113,2,53,1,0,1,644,Other,Exp4a,Implicit
4113,2,54,1,1,1,556,Other,Exp4a,Implicit
4113,2,55,2,0,1,506,Self,Exp4a,Implicit
4113,2,56,1,1,1,708,Self,Exp4a,Implicit
4113,2,57,0,0,1,610,Self,Exp4a,Implicit
4113,2,58,2,1,1,440,Self,Exp4a,Implicit
4113,2,59,0,1,1,717,Other,Exp4a,Implicit
4113,2,60,2,1,0,591,Other,Exp4a,Implicit
4113,3,1,0,0,0,594,Other,Exp4a,Implicit
4113,3,2,2,0,0,360,Other,Exp4a,Implicit
4113,3,3,0,0,1,620,Self,Exp4a,Implicit
4113,3,4,2,1,1,409,Self,Exp4a,Implicit
4113,3,5,1,0,1,489,Other,Exp4a,Implicit
4113,3,6,0,1,1,505,Self,Exp4a,Implicit
4113,3,7,0,1,1,447,Other,Exp4a,Implicit
4113,3,8,1,0,1,501,Self,Exp4a,Implicit
4113,3,9,2,0,1,546,Self,Exp4a,Implicit
4113,3,10,2,1,1,572,Other,Exp4a,Implicit
4113,3,11,1,1,1,410,Self,Exp4a,Implicit
4113,3,12,1,1,1,580,Other,Exp4a,Implicit
4113,3,13,1,0,1,508,Self,Exp4a,Implicit
4113,3,14,2,1,1,606,Self,Exp4a,Implicit
4113,3,15,2,0,1,796,Self,Exp4a,Implicit
4113,3,16,1,1,1,483,Other,Exp4a,Implicit
4113,3,17,1,1,1,457,Self,Exp4a,Implicit
4113,3,18,2,1,1,569,Other,Exp4a,Implicit
4113,3,19,0,0,1,721,Other,Exp4a,Implicit
4113,3,20,1,0,0,588,Other,Exp4a,Implicit
4113,3,21,0,0,1,682,Self,Exp4a,Implicit
4113,3,22,0,1,1,389,Self,Exp4a,Implicit
4113,3,23,0,1,0,415,Other,Exp4a,Implicit
4113,3,24,2,0,0,465,Other,Exp4a,Implicit
4113,3,25,1,0,0,397,Other,Exp4a,Implicit
4113,3,26,1,1,1,437,Self,Exp4a,Implicit
4113,3,27,2,0,1,468,Other,Exp4a,Implicit
4113,3,28,2,1,1,450,Self,Exp4a,Implicit
4113,3,29,2,1,0,428,Other,Exp4a,Implicit
4113,3,30,0,0,1,538,Self,Exp4a,Implicit
4113,3,31,1,1,1,502,Other,Exp4a,Implicit
4113,3,32,2,0,1,506,Self,Exp4a,Implicit
4113,3,33,1,0,1,594,Self,Exp4a,Implicit
4113,3,34,0,0,0,411,Other,Exp4a,Implicit
4113,3,35,0,1,1,459,Self,Exp4a,Implicit
4113,3,36,0,1,1,529,Other,Exp4a,Implicit
4113,3,37,1,0,1,533,Other,Exp4a,Implicit
4113,3,38,0,1,1,535,Self,Exp4a,Implicit
4113,3,39,2,1,1,805,Other,Exp4a,Implicit
4113,3,40,0,0,1,586,Self,Exp4a,Implicit
4113,3,41,0,0,0,424,Other,Exp4a,Implicit
4113,3,42,1,0,1,636,Self,Exp4a,Implicit
4113,3,43,2,1,1,466,Self,Exp4a,Implicit
4113,3,44,2,0,1,632,Self,Exp4a,Implicit
4113,3,45,1,1,1,625,Other,Exp4a,Implicit
4113,3,46,1,1,1,535,Self,Exp4a,Implicit
4113,3,47,0,1,1,501,Other,Exp4a,Implicit
4113,3,48,2,0,1,682,Other,Exp4a,Implicit
4113,3,49,1,0,1,574,Other,Exp4a,Implicit
4113,3,50,1,1,1,724,Other,Exp4a,Implicit
4113,3,51,2,0,1,663,Self,Exp4a,Implicit
4113,3,52,0,0,1,709,Self,Exp4a,Implicit
4113,3,53,0,1,1,599,Other,Exp4a,Implicit
4113,3,54,1,0,1,597,Self,Exp4a,Implicit
4113,3,55,1,1,1,431,Self,Exp4a,Implicit
4113,3,56,0,1,1,613,Self,Exp4a,Implicit
4113,3,57,2,1,1,440,Self,Exp4a,Implicit
4113,3,58,2,0,1,650,Other,Exp4a,Implicit
4113,3,59,0,0,0,488,Other,Exp4a,Implicit
4113,3,60,2,1,1,488,Other,Exp4a,Implicit
4113,4,1,2,0,1,679,Other,Exp4a,Implicit
4113,4,2,0,1,1,412,Self,Exp4a,Implicit
4113,4,3,2,1,1,622,Other,Exp4a,Implicit
4113,4,4,0,0,1,614,Self,Exp4a,Implicit
4113,4,5,2,0,1,674,Self,Exp4a,Implicit
4113,4,6,1,1,1,576,Self,Exp4a,Implicit
4113,4,7,0,0,1,507,Other,Exp4a,Implicit
4113,4,8,2,1,1,533,Self,Exp4a,Implicit
4113,4,9,0,1,1,623,Other,Exp4a,Implicit
4113,4,10,1,1,1,613,Other,Exp4a,Implicit
4113,4,11,1,0,1,583,Other,Exp4a,Implicit
4113,4,12,1,0,1,717,Self,Exp4a,Implicit
4113,4,13,0,1,1,581,Self,Exp4a,Implicit
4113,4,14,1,1,1,746,Self,Exp4a,Implicit
4113,4,15,2,1,1,616,Other,Exp4a,Implicit
4113,4,16,0,0,1,524,Self,Exp4a,Implicit
4113,4,17,2,0,1,666,Other,Exp4a,Implicit
4113,4,18,1,1,1,628,Other,Exp4a,Implicit
4113,4,19,2,0,1,552,Self,Exp4a,Implicit
4113,4,20,1,0,0,469,Other,Exp4a,Implicit
4113,4,21,0,1,1,521,Other,Exp4a,Implicit
4113,4,22,2,1,1,633,Self,Exp4a,Implicit
4113,4,23,0,0,1,691,Other,Exp4a,Implicit
4113,4,24,1,0,1,609,Self,Exp4a,Implicit
4113,4,25,1,0,1,591,Self,Exp4a,Implicit
4113,4,26,1,1,1,452,Self,Exp4a,Implicit
4113,4,27,2,0,1,764,Other,Exp4a,Implicit
4113,4,28,2,1,1,634,Self,Exp4a,Implicit
4113,4,29,0,1,1,538,Other,Exp4a,Implicit
4113,4,30,1,0,0,519,Other,Exp4a,Implicit
4113,4,31,0,0,1,587,Self,Exp4a,Implicit
4113,4,32,2,1,1,516,Other,Exp4a,Implicit
4113,4,33,1,1,1,576,Other,Exp4a,Implicit
4113,4,34,0,0,1,552,Other,Exp4a,Implicit
4113,4,35,0,1,1,482,Self,Exp4a,Implicit
4113,4,36,2,0,1,546,Self,Exp4a,Implicit
4113,4,37,0,1,1,688,Self,Exp4a,Implicit
4113,4,38,0,0,1,618,Self,Exp4a,Implicit
4113,4,39,1,0,1,593,Self,Exp4a,Implicit
4113,4,40,2,0,0,1063,Other,Exp4a,Implicit
4113,4,41,0,1,1,739,Other,Exp4a,Implicit
4113,4,42,1,0,1,497,Other,Exp4a,Implicit
4113,4,43,2,0,1,541,Self,Exp4a,Implicit
4113,4,44,1,1,1,365,Self,Exp4a,Implicit
4113,4,45,2,1,1,556,Other,Exp4a,Implicit
4113,4,46,1,1,1,454,Other,Exp4a,Implicit
4113,4,47,2,1,1,438,Self,Exp4a,Implicit
4113,4,48,0,0,1,610,Other,Exp4a,Implicit
4113,4,49,1,1,1,334,Self,Exp4a,Implicit
4113,4,50,2,0,1,417,Other,Exp4a,Implicit
4113,4,51,0,0,0,497,Self,Exp4a,Implicit
4113,4,52,0,1,1,501,Other,Exp4a,Implicit
4113,4,53,1,1,1,639,Other,Exp4a,Implicit
4113,4,54,2,1,1,477,Other,Exp4a,Implicit
4113,4,55,0,0,1,415,Other,Exp4a,Implicit
4113,4,56,1,0,1,465,Other,Exp4a,Implicit
4113,4,57,2,0,1,674,Self,Exp4a,Implicit
4113,4,58,0,1,1,631,Self,Exp4a,Implicit
4113,4,59,1,0,1,631,Self,Exp4a,Implicit
4113,4,60,2,1,0,515,Self,Exp4a,Implicit
4113,5,1,2,0,1,589,Other,Exp4a,Implicit
4113,5,2,2,1,1,387,Self,Exp4a,Implicit
4113,5,3,0,1,1,375,Self,Exp4a,Implicit
4113,5,4,1,0,0,448,Self,Exp4a,Implicit
4113,5,5,1,1,1,394,Self,Exp4a,Implicit
4113,5,6,2,1,1,470,Other,Exp4a,Implicit
4113,5,7,1,1,1,652,Other,Exp4a,Implicit
4113,5,8,0,0,1,470,Other,Exp4a,Implicit
4113,5,9,0,1,1,786,Other,Exp4a,Implicit
4113,5,10,1,0,1,623,Other,Exp4a,Implicit
4113,5,11,0,0,1,611,Self,Exp4a,Implicit
4113,5,12,2,0,1,645,Self,Exp4a,Implicit
4113,5,13,2,0,0,489,Self,Exp4a,Implicit
4113,5,14,1,1,1,503,Other,Exp4a,Implicit
4113,5,15,0,0,1,515,Self,Exp4a,Implicit
4113,5,16,1,0,1,581,Other,Exp4a,Implicit
4113,5,17,2,1,1,525,Self,Exp4a,Implicit
4113,5,18,1,0,1,483,Self,Exp4a,Implicit
4113,5,19,2,0,1,573,Other,Exp4a,Implicit
4113,5,20,0,0,1,543,Other,Exp4a,Implicit
4113,5,21,2,1,1,575,Other,Exp4a,Implicit
4113,5,22,0,1,0,430,Other,Exp4a,Implicit
4113,5,23,0,1,1,318,Self,Exp4a,Implicit
4113,5,24,1,1,1,478,Self,Exp4a,Implicit
4113,5,25,2,0,1,618,Other,Exp4a,Implicit
4113,5,26,2,1,1,594,Other,Exp4a,Implicit
4113,5,27,1,1,1,648,Other,Exp4a,Implicit
4113,5,28,2,0,0,426,Self,Exp4a,Implicit
4113,5,29,0,0,1,633,Self,Exp4a,Implicit
4113,5,30,1,0,0,523,Other,Exp4a,Implicit
4113,5,31,1,1,1,415,Self,Exp4a,Implicit
4113,5,32,2,1,1,455,Self,Exp4a,Implicit
4113,5,33,0,1,1,535,Other,Exp4a,Implicit
4113,5,34,0,0,1,547,Other,Exp4a,Implicit
4113,5,35,1,0,0,660,Self,Exp4a,Implicit
4113,5,36,0,1,1,574,Self,Exp4a,Implicit
4113,5,37,1,1,1,414,Other,Exp4a,Implicit
4113,5,38,0,1,1,560,Self,Exp4a,Implicit
4113,5,39,2,1,1,806,Self,Exp4a,Implicit
4113,5,40,2,1,1,616,Other,Exp4a,Implicit
4113,5,41,2,0,1,635,Self,Exp4a,Implicit
4113,5,42,1,1,1,563,Self,Exp4a,Implicit
4113,5,43,1,0,1,641,Self,Exp4a,Implicit
4113,5,44,0,1,1,714,Other,Exp4a,Implicit
4113,5,45,2,0,1,620,Other,Exp4a,Implicit
4113,5,46,0,0,1,1010,Self,Exp4a,Implicit
4113,5,47,1,0,1,703,Other,Exp4a,Implicit
4113,5,48,0,0,1,603,Other,Exp4a,Implicit
4113,5,49,0,1,1,631,Other,Exp4a,Implicit
4113,5,50,1,1,1,639,Self,Exp4a,Implicit
4113,5,51,1,0,1,857,Self,Exp4a,Implicit
4113,5,52,2,0,1,561,Other,Exp4a,Implicit
4113,5,53,2,1,1,492,Self,Exp4a,Implicit
4113,5,54,2,0,1,626,Self,Exp4a,Implicit
4113,5,55,0,0,1,550,Self,Exp4a,Implicit
4113,5,56,1,1,1,628,Other,Exp4a,Implicit
4113,5,57,0,0,1,554,Other,Exp4a,Implicit
4113,5,58,0,1,1,470,Self,Exp4a,Implicit
4113,5,59,1,0,1,497,Other,Exp4a,Implicit
4113,5,60,2,1,1,579,Other,Exp4a,Implicit
4113,6,1,0,1,1,569,Other,Exp4a,Implicit
4113,6,2,0,0,1,501,Self,Exp4a,Implicit
4113,6,3,1,0,0,431,Other,Exp4a,Implicit
4113,6,4,2,1,1,467,Other,Exp4a,Implicit
4113,6,5,1,1,1,433,Self,Exp4a,Implicit
4113,6,6,2,1,1,534,Self,Exp4a,Implicit
4113,6,7,2,0,1,632,Self,Exp4a,Implicit
4113,6,8,0,1,1,426,Self,Exp4a,Implicit
4113,6,9,0,0,1,556,Other,Exp4a,Implicit
4113,6,10,1,1,1,368,Other,Exp4a,Implicit
4113,6,11,1,0,1,456,Self,Exp4a,Implicit
4113,6,13,2,0,0,823,Self,Exp4a,Implicit
4113,6,14,0,0,0,443,Other,Exp4a,Implicit
4113,6,15,1,1,1,437,Other,Exp4a,Implicit
4113,6,16,0,1,1,403,Self,Exp4a,Implicit
4113,6,17,2,1,1,363,Other,Exp4a,Implicit
4113,6,18,1,0,1,495,Other,Exp4a,Implicit
4113,6,19,2,1,1,422,Self,Exp4a,Implicit
4113,6,20,0,0,1,514,Self,Exp4a,Implicit
4113,6,21,2,0,1,606,Other,Exp4a,Implicit
4113,6,22,0,1,1,476,Other,Exp4a,Implicit
4113,6,23,1,0,1,557,Self,Exp4a,Implicit
4113,6,24,1,1,1,365,Self,Exp4a,Implicit
4113,6,25,0,1,1,516,Other,Exp4a,Implicit
4113,6,26,0,1,1,414,Self,Exp4a,Implicit
4113,6,27,0,0,1,384,Other,Exp4a,Implicit
4113,6,28,1,0,0,326,Other,Exp4a,Implicit
4113,6,29,2,0,0,352,Self,Exp4a,Implicit
4113,6,30,1,1,1,366,Self,Exp4a,Implicit
4113,6,31,1,0,1,591,Self,Exp4a,Implicit
4113,6,32,2,1,1,349,Self,Exp4a,Implicit
4113,6,33,2,1,1,407,Other,Exp4a,Implicit
4113,6,34,1,1,0,401,Other,Exp4a,Implicit
4113,6,35,0,0,1,567,Self,Exp4a,Implicit
4113,6,36,2,0,0,462,Other,Exp4a,Implicit
4113,6,37,1,1,1,648,Other,Exp4a,Implicit
4113,6,38,2,1,1,584,Other,Exp4a,Implicit
4113,6,39,0,1,1,392,Self,Exp4a,Implicit
4113,6,40,2,0,1,558,Other,Exp4a,Implicit
4113,6,41,1,0,1,604,Other,Exp4a,Implicit
4113,6,42,1,0,1,638,Self,Exp4a,Implicit
4113,6,43,0,0,1,753,Other,Exp4a,Implicit
4113,6,44,0,0,1,741,Self,Exp4a,Implicit
4113,6,45,1,1,1,621,Self,Exp4a,Implicit
4113,6,46,2,0,1,651,Self,Exp4a,Implicit
4113,6,47,0,1,0,815,Other,Exp4a,Implicit
4113,6,48,2,1,1,428,Self,Exp4a,Implicit
4113,6,49,1,1,1,546,Self,Exp4a,Implicit
4113,6,50,2,1,1,421,Other,Exp4a,Implicit
4113,6,51,2,0,1,583,Self,Exp4a,Implicit
4113,6,52,0,0,0,475,Other,Exp4a,Implicit
4113,6,53,2,0,1,563,Other,Exp4a,Implicit
4113,6,54,1,0,1,689,Self,Exp4a,Implicit
4113,6,55,1,1,1,578,Other,Exp4a,Implicit
4113,6,56,0,1,1,472,Self,Exp4a,Implicit
4113,6,57,0,1,1,642,Other,Exp4a,Implicit
4113,6,58,0,0,1,584,Self,Exp4a,Implicit
4113,6,59,1,0,1,556,Other,Exp4a,Implicit
4113,6,60,2,1,1,649,Self,Exp4a,Implicit
4115,1,1,0,1,1,809,Other,Exp4a,Implicit
4115,1,2,0,1,1,549,Self,Exp4a,Implicit
4115,1,3,2,1,1,625,Other,Exp4a,Implicit
4115,1,4,1,0,1,637,Self,Exp4a,Implicit
4115,1,5,1,1,1,831,Other,Exp4a,Implicit
4115,1,6,1,1,1,823,Self,Exp4a,Implicit
4115,1,7,1,0,1,1006,Other,Exp4a,Implicit
4115,1,8,2,0,0,969,Other,Exp4a,Implicit
4115,1,9,2,0,1,722,Self,Exp4a,Implicit
4115,1,10,2,1,1,696,Self,Exp4a,Implicit
4115,1,11,0,0,1,656,Other,Exp4a,Implicit
4115,1,12,0,0,1,786,Self,Exp4a,Implicit
4115,1,13,1,1,1,452,Self,Exp4a,Implicit
4115,1,14,0,1,1,716,Self,Exp4a,Implicit
4115,1,15,0,1,0,701,Other,Exp4a,Implicit
4115,1,16,2,0,1,717,Self,Exp4a,Implicit
4115,1,17,1,0,1,860,Other,Exp4a,Implicit
4115,1,18,2,1,1,614,Self,Exp4a,Implicit
4115,1,19,1,1,1,478,Other,Exp4a,Implicit
4115,1,20,2,1,1,524,Other,Exp4a,Implicit
4115,1,21,2,0,1,756,Other,Exp4a,Implicit
4115,1,22,0,0,1,796,Other,Exp4a,Implicit
4115,1,23,0,0,0,702,Self,Exp4a,Implicit
4115,1,25,0,1,1,1089,Other,Exp4a,Implicit
4115,1,26,0,1,1,601,Self,Exp4a,Implicit
4115,1,27,0,0,1,775,Other,Exp4a,Implicit
4115,1,28,1,1,1,1040,Other,Exp4a,Implicit
4115,1,29,0,0,1,747,Self,Exp4a,Implicit
4115,1,31,1,0,0,657,Self,Exp4a,Implicit
4115,1,32,1,0,1,811,Other,Exp4a,Implicit
4115,1,33,1,1,1,629,Self,Exp4a,Implicit
4115,1,34,2,1,1,596,Self,Exp4a,Implicit
4115,1,35,2,0,1,684,Self,Exp4a,Implicit
4115,1,36,2,1,0,772,Other,Exp4a,Implicit
4115,1,37,0,0,1,706,Other,Exp4a,Implicit
4115,1,38,2,1,1,624,Other,Exp4a,Implicit
4115,1,39,1,1,1,588,Self,Exp4a,Implicit
4115,1,40,2,0,1,776,Other,Exp4a,Implicit
4115,1,41,0,1,1,554,Other,Exp4a,Implicit
4115,1,42,1,1,1,750,Other,Exp4a,Implicit
4115,1,43,1,0,1,529,Other,Exp4a,Implicit
4115,1,44,0,1,1,581,Self,Exp4a,Implicit
4115,1,45,0,0,1,537,Self,Exp4a,Implicit
4115,1,46,2,1,1,669,Self,Exp4a,Implicit
4115,1,47,2,0,1,675,Self,Exp4a,Implicit
4115,1,48,1,0,0,663,Self,Exp4a,Implicit
4115,1,49,1,1,1,665,Self,Exp4a,Implicit
4115,1,50,1,0,1,808,Other,Exp4a,Implicit
4115,1,51,0,0,1,689,Self,Exp4a,Implicit
4115,1,52,0,1,1,968,Other,Exp4a,Implicit
4115,1,53,1,1,1,638,Other,Exp4a,Implicit
4115,1,54,1,0,1,945,Self,Exp4a,Implicit
4115,1,56,0,1,1,521,Self,Exp4a,Implicit
4115,1,57,2,1,1,587,Self,Exp4a,Implicit
4115,1,58,2,0,1,579,Self,Exp4a,Implicit
4115,1,59,2,0,1,856,Other,Exp4a,Implicit
4115,1,60,2,1,1,504,Other,Exp4a,Implicit
4115,2,1,2,1,1,743,Other,Exp4a,Implicit
4115,2,2,1,1,1,461,Other,Exp4a,Implicit
4115,2,3,0,1,1,865,Self,Exp4a,Implicit
4115,2,4,2,0,1,750,Other,Exp4a,Implicit
4115,2,5,1,0,1,584,Other,Exp4a,Implicit
4115,2,6,0,0,1,758,Self,Exp4a,Implicit
4115,2,7,1,1,1,606,Self,Exp4a,Implicit
4115,2,8,0,0,1,628,Other,Exp4a,Implicit
4115,2,9,2,1,1,712,Self,Exp4a,Implicit
4115,2,10,2,0,1,518,Self,Exp4a,Implicit
4115,2,11,1,0,1,748,Self,Exp4a,Implicit
4115,2,12,0,1,0,796,Other,Exp4a,Implicit
4115,2,13,0,1,1,544,Self,Exp4a,Implicit
4115,2,14,1,0,1,573,Self,Exp4a,Implicit
4115,2,15,0,1,1,1083,Other,Exp4a,Implicit
4115,2,16,2,0,1,651,Other,Exp4a,Implicit
4115,2,17,2,0,1,709,Self,Exp4a,Implicit
4115,2,18,1,0,1,699,Other,Exp4a,Implicit
4115,2,19,1,1,1,567,Self,Exp4a,Implicit
4115,2,20,1,1,1,633,Other,Exp4a,Implicit
4115,2,21,0,0,1,553,Self,Exp4a,Implicit
4115,2,22,0,0,1,725,Other,Exp4a,Implicit
4115,2,23,2,1,1,667,Other,Exp4a,Implicit
4115,2,24,2,1,1,615,Self,Exp4a,Implicit
4115,2,25,0,0,1,663,Other,Exp4a,Implicit
4115,2,26,2,1,1,659,Self,Exp4a,Implicit
4115,2,27,2,0,1,695,Other,Exp4a,Implicit
4115,2,28,1,0,1,735,Self,Exp4a,Implicit
4115,2,29,0,1,1,877,Other,Exp4a,Implicit
4115,2,30,0,1,1,640,Self,Exp4a,Implicit
4115,2,31,1,1,1,648,Self,Exp4a,Implicit
4115,2,32,2,1,1,610,Other,Exp4a,Implicit
4115,2,33,2,0,1,592,Self,Exp4a,Implicit
4115,2,34,1,1,1,630,Other,Exp4a,Implicit
4115,2,35,0,0,1,1034,Self,Exp4a,Implicit
4115,2,36,1,0,1,690,Other,Exp4a,Implicit
4115,2,37,1,0,1,754,Self,Exp4a,Implicit
4115,2,38,1,1,1,552,Self,Exp4a,Implicit
4115,2,39,0,1,1,425,Self,Exp4a,Implicit
4115,2,40,1,0,1,621,Other,Exp4a,Implicit
4115,2,41,1,1,1,963,Other,Exp4a,Implicit
4115,2,42,0,1,1,933,Other,Exp4a,Implicit
4115,2,43,2,1,1,637,Other,Exp4a,Implicit
4115,2,44,0,0,1,977,Self,Exp4a,Implicit
4115,2,45,0,0,1,989,Other,Exp4a,Implicit
4115,2,46,2,1,1,835,Self,Exp4a,Implicit
4115,2,47,2,0,1,539,Self,Exp4a,Implicit
4115,2,48,2,0,1,723,Other,Exp4a,Implicit
4115,2,49,2,1,1,594,Other,Exp4a,Implicit
4115,2,50,2,0,1,722,Self,Exp4a,Implicit
4115,2,51,0,1,1,560,Other,Exp4a,Implicit
4115,2,52,1,0,1,732,Other,Exp4a,Implicit
4115,2,53,2,1,1,574,Self,Exp4a,Implicit
4115,2,54,2,0,1,602,Other,Exp4a,Implicit
4115,2,55,1,1,1,570,Self,Exp4a,Implicit
4115,2,56,0,0,1,591,Other,Exp4a,Implicit
4115,2,57,1,1,1,797,Other,Exp4a,Implicit
4115,2,58,0,1,1,547,Self,Exp4a,Implicit
4115,2,59,1,0,1,653,Self,Exp4a,Implicit
4115,2,60,0,0,1,881,Self,Exp4a,Implicit
4115,3,1,0,1,0,817,Other,Exp4a,Implicit
4115,3,2,2,0,1,596,Self,Exp4a,Implicit
4115,3,3,0,0,1,706,Self,Exp4a,Implicit
4115,3,4,0,0,1,902,Other,Exp4a,Implicit
4115,3,5,1,1,1,682,Other,Exp4a,Implicit
4115,3,6,0,1,1,588,Self,Exp4a,Implicit
4115,3,7,2,0,1,624,Other,Exp4a,Implicit
4115,3,8,2,1,1,714,Other,Exp4a,Implicit
4115,3,9,1,0,1,582,Other,Exp4a,Implicit
4115,3,10,1,0,1,640,Self,Exp4a,Implicit
4115,3,11,1,1,1,553,Self,Exp4a,Implicit
4115,3,12,2,1,1,447,Self,Exp4a,Implicit
4115,3,13,0,1,1,541,Self,Exp4a,Implicit
4115,3,14,0,1,0,549,Other,Exp4a,Implicit
4115,3,15,1,1,1,653,Self,Exp4a,Implicit
4115,3,16,2,0,1,683,Other,Exp4a,Implicit
4115,3,17,1,0,1,1039,Other,Exp4a,Implicit
4115,3,18,1,0,1,1084,Self,Exp4a,Implicit
4115,3,19,2,1,1,760,Other,Exp4a,Implicit
4115,3,20,0,0,1,590,Self,Exp4a,Implicit
4115,3,21,1,1,1,660,Other,Exp4a,Implicit
4115,3,22,2,1,1,630,Self,Exp4a,Implicit
4115,3,23,2,0,1,610,Self,Exp4a,Implicit
4115,3,24,0,0,1,872,Other,Exp4a,Implicit
4115,3,25,2,1,1,646,Other,Exp4a,Implicit
4115,3,26,2,0,1,1056,Self,Exp4a,Implicit
4115,3,27,1,1,1,732,Other,Exp4a,Implicit
4115,3,28,0,0,1,705,Other,Exp4a,Implicit
4115,3,29,2,0,1,602,Other,Exp4a,Implicit
4115,3,30,0,0,0,586,Self,Exp4a,Implicit
4115,3,31,2,1,1,462,Self,Exp4a,Implicit
4115,3,32,1,1,1,722,Self,Exp4a,Implicit
4115,3,33,0,1,1,740,Self,Exp4a,Implicit
4115,3,34,1,0,1,538,Self,Exp4a,Implicit
4115,3,35,1,0,1,672,Other,Exp4a,Implicit
4115,3,36,0,1,1,675,Other,Exp4a,Implicit
4115,3,37,2,0,1,709,Self,Exp4a,Implicit
4115,3,38,0,1,1,801,Self,Exp4a,Implicit
4115,3,39,1,1,1,869,Self,Exp4a,Implicit
4115,3,40,1,0,1,665,Other,Exp4a,Implicit
4115,3,41,2,1,1,587,Self,Exp4a,Implicit
4115,3,42,0,1,1,989,Other,Exp4a,Implicit
4115,3,43,0,0,1,731,Self,Exp4a,Implicit
4115,3,44,0,0,1,975,Other,Exp4a,Implicit
4115,3,46,2,1,1,856,Other,Exp4a,Implicit
4115,3,47,2,0,1,692,Other,Exp4a,Implicit
4115,3,48,1,1,1,1030,Other,Exp4a,Implicit
4115,3,49,2,1,1,638,Other,Exp4a,Implicit
4115,3,50,0,0,1,538,Self,Exp4a,Implicit
4115,3,51,2,0,1,826,Other,Exp4a,Implicit
4115,3,52,0,0,1,688,Other,Exp4a,Implicit
4115,3,53,1,0,0,475,Self,Exp4a,Implicit
4115,3,54,1,0,1,639,Other,Exp4a,Implicit
4115,3,55,0,1,1,803,Other,Exp4a,Implicit
4115,3,56,2,1,1,967,Self,Exp4a,Implicit
4115,3,57,1,1,0,513,Other,Exp4a,Implicit
4115,3,58,0,1,1,613,Self,Exp4a,Implicit
4115,3,59,2,0,1,751,Self,Exp4a,Implicit
4115,3,60,1,1,1,555,Self,Exp4a,Implicit
4115,4,1,2,0,1,876,Self,Exp4a,Implicit
4115,4,2,0,1,1,610,Self,Exp4a,Implicit
4115,4,3,2,0,1,654,Other,Exp4a,Implicit
4115,4,4,1,0,1,876,Other,Exp4a,Implicit
4115,4,5,2,1,1,560,Other,Exp4a,Implicit
4115,4,6,0,1,1,449,Other,Exp4a,Implicit
4115,4,7,2,1,1,653,Self,Exp4a,Implicit
4115,4,8,0,0,1,737,Other,Exp4a,Implicit
4115,4,9,1,1,1,539,Self,Exp4a,Implicit
4115,4,10,0,0,1,769,Self,Exp4a,Implicit
4115,4,11,1,0,1,1015,Self,Exp4a,Implicit
4115,4,12,1,1,1,721,Other,Exp4a,Implicit
4115,4,13,1,1,1,535,Other,Exp4a,Implicit
4115,4,14,0,1,1,491,Other,Exp4a,Implicit
4115,4,15,2,1,1,598,Other,Exp4a,Implicit
4115,4,16,1,0,1,576,Self,Exp4a,Implicit
4115,4,17,1,1,1,670,Self,Exp4a,Implicit
4115,4,18,0,0,1,550,Other,Exp4a,Implicit
4115,4,19,2,1,1,542,Self,Exp4a,Implicit
4115,4,20,2,0,1,742,Other,Exp4a,Implicit
4115,4,21,2,0,1,726,Self,Exp4a,Implicit
4115,4,22,1,0,1,818,Other,Exp4a,Implicit
4115,4,23,0,0,1,776,Self,Exp4a,Implicit
4115,4,24,0,1,1,609,Self,Exp4a,Implicit
4115,4,25,1,1,1,625,Self,Exp4a,Implicit
4115,4,26,1,0,1,801,Self,Exp4a,Implicit
4115,4,27,0,1,1,845,Other,Exp4a,Implicit
4115,4,29,2,0,1,589,Self,Exp4a,Implicit
4115,4,30,0,0,1,529,Self,Exp4a,Implicit
4115,4,31,2,0,1,926,Other,Exp4a,Implicit
4115,4,32,0,0,1,624,Other,Exp4a,Implicit
4115,4,33,1,1,1,766,Other,Exp4a,Implicit
4115,4,34,1,0,1,796,Other,Exp4a,Implicit
4115,4,35,2,1,1,540,Self,Exp4a,Implicit
4115,4,36,0,1,1,551,Self,Exp4a,Implicit
4115,4,37,0,1,1,565,Self,Exp4a,Implicit
4115,4,38,2,1,1,503,Self,Exp4a,Implicit
4115,4,39,2,1,0,775,Other,Exp4a,Implicit
4115,4,40,0,0,1,666,Self,Exp4a,Implicit
4115,4,41,0,0,1,838,Other,Exp4a,Implicit
4115,4,42,1,1,1,624,Other,Exp4a,Implicit
4115,4,43,1,1,1,598,Self,Exp4a,Implicit
4115,4,44,1,0,1,730,Other,Exp4a,Implicit
4115,4,45,2,0,1,728,Self,Exp4a,Implicit
4115,4,46,2,0,1,556,Other,Exp4a,Implicit
4115,4,47,1,0,1,654,Self,Exp4a,Implicit
4115,4,48,0,1,1,762,Other,Exp4a,Implicit
4115,4,49,0,0,1,647,Other,Exp4a,Implicit
4115,4,50,2,0,1,597,Self,Exp4a,Implicit
4115,4,51,1,1,1,843,Self,Exp4a,Implicit
4115,4,53,0,1,1,697,Other,Exp4a,Implicit
4115,4,54,0,0,1,583,Self,Exp4a,Implicit
4115,4,55,0,1,1,659,Self,Exp4a,Implicit
4115,4,56,1,0,1,597,Self,Exp4a,Implicit
4115,4,57,2,1,0,694,Other,Exp4a,Implicit
4115,4,58,1,0,1,606,Other,Exp4a,Implicit
4115,4,59,2,0,1,690,Other,Exp4a,Implicit
4115,4,60,1,1,1,648,Other,Exp4a,Implicit
4115,5,1,0,1,1,709,Other,Exp4a,Implicit
4115,5,2,0,0,1,563,Self,Exp4a,Implicit
4115,5,3,1,0,1,601,Self,Exp4a,Implicit
4115,5,4,0,1,1,551,Self,Exp4a,Implicit
4115,5,5,2,0,1,608,Other,Exp4a,Implicit
4115,5,6,2,1,1,510,Self,Exp4a,Implicit
4115,5,7,2,0,1,458,Self,Exp4a,Implicit
4115,5,8,1,0,1,764,Other,Exp4a,Implicit
4115,5,9,1,1,1,598,Self,Exp4a,Implicit
4115,5,10,2,1,0,496,Other,Exp4a,Implicit
4115,5,11,0,0,1,612,Other,Exp4a,Implicit
4115,5,12,1,1,1,705,Other,Exp4a,Implicit
4115,5,13,0,1,1,703,Other,Exp4a,Implicit
4115,5,14,0,0,1,649,Self,Exp4a,Implicit
4115,5,15,1,1,1,611,Self,Exp4a,Implicit
4115,5,16,2,0,1,645,Other,Exp4a,Implicit
4115,5,17,1,0,1,851,Self,Exp4a,Implicit
4115,5,18,0,1,1,453,Self,Exp4a,Implicit
4115,5,19,1,0,1,829,Other,Exp4a,Implicit
4115,5,20,1,1,1,649,Other,Exp4a,Implicit
4115,5,21,2,1,1,706,Self,Exp4a,Implicit
4115,5,22,0,0,1,798,Other,Exp4a,Implicit
4115,5,23,2,0,1,890,Self,Exp4a,Implicit
4115,5,24,2,1,1,740,Other,Exp4a,Implicit
4115,5,25,2,1,1,658,Self,Exp4a,Implicit
4115,5,26,2,0,1,620,Other,Exp4a,Implicit
4115,5,27,0,0,1,674,Self,Exp4a,Implicit
4115,5,28,0,0,1,728,Other,Exp4a,Implicit
4115,5,29,0,1,1,685,Self,Exp4a,Implicit
4115,5,30,1,0,1,681,Other,Exp4a,Implicit
4115,5,31,1,0,1,787,Self,Exp4a,Implicit
4115,5,32,0,1,1,787,Other,Exp4a,Implicit
4115,5,34,2,0,1,859,Self,Exp4a,Implicit
4115,5,35,1,1,1,763,Other,Exp4a,Implicit
4115,5,36,1,1,1,606,Self,Exp4a,Implicit
4115,5,37,2,1,1,656,Other,Exp4a,Implicit
4115,5,38,2,0,1,572,Self,Exp4a,Implicit
4115,5,39,2,0,1,823,Other,Exp4a,Implicit
4115,5,40,0,0,1,629,Self,Exp4a,Implicit
4115,5,41,2,1,1,669,Self,Exp4a,Implicit
4115,5,42,0,1,1,605,Self,Exp4a,Implicit
4115,5,43,1,1,1,487,Self,Exp4a,Implicit
4115,5,44,1,0,1,537,Self,Exp4a,Implicit
4115,5,45,1,1,1,643,Other,Exp4a,Implicit
4115,5,46,1,0,1,856,Other,Exp4a,Implicit
4115,5,47,0,1,1,528,Other,Exp4a,Implicit
4115,5,48,0,0,1,622,Other,Exp4a,Implicit
4115,5,49,2,1,1,470,Other,Exp4a,Implicit
4115,5,50,1,0,1,530,Self,Exp4a,Implicit
4115,5,51,1,1,1,888,Self,Exp4a,Implicit
4115,5,52,1,1,1,776,Other,Exp4a,Implicit
4115,5,53,1,0,1,526,Other,Exp4a,Implicit
4115,5,54,2,0,1,608,Other,Exp4a,Implicit
4115,5,55,0,1,1,476,Self,Exp4a,Implicit
4115,5,56,0,0,1,649,Self,Exp4a,Implicit
4115,5,57,0,0,1,989,Other,Exp4a,Implicit
4115,5,58,2,1,1,583,Self,Exp4a,Implicit
4115,5,59,0,1,0,437,Other,Exp4a,Implicit
4115,5,60,2,0,1,607,Self,Exp4a,Implicit
4115,6,1,2,1,1,767,Self,Exp4a,Implicit
4115,6,2,0,0,1,393,Other,Exp4a,Implicit
4115,6,3,1,1,1,475,Self,Exp4a,Implicit
4115,6,4,2,0,1,555,Other,Exp4a,Implicit
4115,6,5,1,1,1,687,Other,Exp4a,Implicit
4115,6,6,1,0,1,712,Other,Exp4a,Implicit
4115,6,7,2,1,1,674,Other,Exp4a,Implicit
4115,6,8,1,0,1,522,Self,Exp4a,Implicit
4115,6,9,2,0,1,818,Self,Exp4a,Implicit
4115,6,10,0,1,1,782,Other,Exp4a,Implicit
4115,6,11,0,0,1,882,Self,Exp4a,Implicit
4115,6,12,0,1,1,486,Self,Exp4a,Implicit
4115,6,13,2,0,1,500,Other,Exp4a,Implicit
4115,6,14,2,1,1,646,Other,Exp4a,Implicit
4115,6,15,0,1,1,459,Self,Exp4a,Implicit
4115,6,16,1,1,1,729,Other,Exp4a,Implicit
4115,6,17,1,1,1,675,Self,Exp4a,Implicit
4115,6,18,0,1,1,625,Other,Exp4a,Implicit
4115,6,19,1,0,1,819,Self,Exp4a,Implicit
4115,6,20,2,0,1,965,Self,Exp4a,Implicit
4115,6,21,0,0,1,1063,Other,Exp4a,Implicit
4115,6,22,0,0,1,766,Self,Exp4a,Implicit
4115,6,23,2,1,1,604,Self,Exp4a,Implicit
4115,6,24,1,0,1,692,Other,Exp4a,Implicit
4115,6,25,0,0,1,768,Other,Exp4a,Implicit
4115,6,26,0,1,1,648,Other,Exp4a,Implicit
4115,6,27,2,1,1,572,Self,Exp4a,Implicit
4115,6,28,1,0,1,642,Self,Exp4a,Implicit
4115,6,29,1,1,1,658,Other,Exp4a,Implicit
4115,6,30,2,1,1,572,Other,Exp4a,Implicit
4115,6,31,0,0,1,707,Self,Exp4a,Implicit
4115,6,32,1,1,1,684,Self,Exp4a,Implicit
4115,6,33,2,0,1,674,Self,Exp4a,Implicit
4115,6,34,1,0,1,776,Other,Exp4a,Implicit
4115,6,35,0,1,1,590,Self,Exp4a,Implicit
4115,6,36,2,0,1,680,Other,Exp4a,Implicit
4115,6,37,0,1,1,546,Self,Exp4a,Implicit
4115,6,38,0,0,1,638,Other,Exp4a,Implicit
4115,6,39,1,1,1,669,Self,Exp4a,Implicit
4115,6,40,2,0,1,614,Other,Exp4a,Implicit
4115,6,41,0,0,1,741,Self,Exp4a,Implicit
4115,6,42,1,0,1,729,Self,Exp4a,Implicit
4115,6,43,2,1,1,583,Self,Exp4a,Implicit
4115,6,44,1,1,1,851,Other,Exp4a,Implicit
4115,6,45,0,1,1,737,Other,Exp4a,Implicit
4115,6,46,1,0,1,675,Other,Exp4a,Implicit
4115,6,47,2,1,1,665,Other,Exp4a,Implicit
4115,6,48,2,0,1,682,Self,Exp4a,Implicit
4115,6,49,0,0,1,568,Self,Exp4a,Implicit
4115,6,50,1,0,1,756,Self,Exp4a,Implicit
4115,6,51,2,1,1,602,Self,Exp4a,Implicit
4115,6,52,0,1,1,696,Other,Exp4a,Implicit
4115,6,53,2,0,1,600,Self,Exp4a,Implicit
4115,6,54,1,1,1,690,Other,Exp4a,Implicit
4115,6,55,1,0,1,784,Other,Exp4a,Implicit
4115,6,56,0,1,1,544,Self,Exp4a,Implicit
4115,6,57,1,1,1,674,Self,Exp4a,Implicit
4115,6,58,2,0,1,733,Other,Exp4a,Implicit
4115,6,59,0,0,1,771,Other,Exp4a,Implicit
4115,6,60,2,1,1,577,Other,Exp4a,Implicit
4116,1,1,0,1,1,657,Self,Exp4a,Implicit
4116,1,2,1,1,1,1007,Other,Exp4a,Implicit
4116,1,3,2,0,1,696,Other,Exp4a,Implicit
4116,1,4,0,0,0,542,Self,Exp4a,Implicit
4116,1,6,1,0,1,834,Self,Exp4a,Implicit
4116,1,7,2,1,1,686,Self,Exp4a,Implicit
4116,1,8,0,0,1,663,Other,Exp4a,Implicit
4116,1,9,1,1,1,485,Self,Exp4a,Implicit
4116,1,10,2,0,1,535,Self,Exp4a,Implicit
4116,1,11,1,0,0,849,Other,Exp4a,Implicit
4116,1,13,0,0,1,787,Other,Exp4a,Implicit
4116,1,14,2,0,1,823,Self,Exp4a,Implicit
4116,1,15,0,1,1,899,Self,Exp4a,Implicit
4116,1,16,2,1,1,589,Self,Exp4a,Implicit
4116,1,17,0,1,0,1035,Other,Exp4a,Implicit
4116,1,18,1,0,1,1070,Other,Exp4a,Implicit
4116,1,19,0,0,0,1083,Self,Exp4a,Implicit
4116,1,21,2,1,1,776,Other,Exp4a,Implicit
4116,1,22,1,0,1,644,Self,Exp4a,Implicit
4116,1,23,1,1,1,588,Self,Exp4a,Implicit
4116,1,24,2,0,0,474,Other,Exp4a,Implicit
4116,1,25,2,0,1,787,Self,Exp4a,Implicit
4116,1,26,2,1,1,731,Self,Exp4a,Implicit
4116,1,27,0,1,1,579,Self,Exp4a,Implicit
4116,1,28,1,0,1,757,Other,Exp4a,Implicit
4116,1,29,1,0,1,867,Self,Exp4a,Implicit
4116,1,30,0,0,1,811,Self,Exp4a,Implicit
4116,1,33,2,1,1,814,Other,Exp4a,Implicit
4116,1,34,0,0,1,682,Other,Exp4a,Implicit
4116,1,35,1,1,1,604,Self,Exp4a,Implicit
4116,1,36,2,0,1,768,Other,Exp4a,Implicit
4116,1,37,2,0,1,812,Other,Exp4a,Implicit
4116,1,38,2,0,1,684,Self,Exp4a,Implicit
4116,1,39,1,0,1,910,Other,Exp4a,Implicit
4116,1,41,2,1,1,884,Other,Exp4a,Implicit
4116,1,42,1,1,0,876,Self,Exp4a,Implicit
4116,1,44,2,1,1,760,Self,Exp4a,Implicit
4116,1,45,1,1,0,594,Other,Exp4a,Implicit
4116,1,46,0,0,1,868,Self,Exp4a,Implicit
4116,1,47,0,1,1,750,Self,Exp4a,Implicit
4116,1,48,0,1,1,806,Other,Exp4a,Implicit
4116,1,49,2,1,1,767,Other,Exp4a,Implicit
4116,1,50,2,1,1,591,Self,Exp4a,Implicit
4116,1,51,0,1,1,513,Self,Exp4a,Implicit
4116,1,52,1,0,1,635,Other,Exp4a,Implicit
4116,1,53,1,1,1,733,Self,Exp4a,Implicit
4116,1,54,2,0,1,685,Self,Exp4a,Implicit
4116,1,57,0,0,0,873,Other,Exp4a,Implicit
4116,1,58,1,1,1,1047,Other,Exp4a,Implicit
4116,1,59,0,0,1,714,Self,Exp4a,Implicit
4116,1,60,1,0,1,946,Self,Exp4a,Implicit
4116,2,1,1,1,0,951,Other,Exp4a,Implicit
4116,2,3,2,1,1,600,Self,Exp4a,Implicit
4116,2,4,0,1,1,377,Self,Exp4a,Implicit
4116,2,5,0,0,1,618,Other,Exp4a,Implicit
4116,2,6,2,0,0,542,Other,Exp4a,Implicit
4116,2,7,1,0,1,652,Self,Exp4a,Implicit
4116,2,8,2,0,0,923,Self,Exp4a,Implicit
4116,2,9,1,1,1,1023,Self,Exp4a,Implicit
4116,2,10,1,0,1,691,Other,Exp4a,Implicit
4116,2,12,0,0,1,669,Self,Exp4a,Implicit
4116,2,13,2,1,1,598,Self,Exp4a,Implicit
4116,2,14,0,1,1,910,Other,Exp4a,Implicit
4116,2,15,0,1,1,530,Self,Exp4a,Implicit
4116,2,16,1,0,0,568,Other,Exp4a,Implicit
4116,2,17,2,0,1,726,Other,Exp4a,Implicit
4116,2,19,1,1,0,770,Other,Exp4a,Implicit
4116,2,20,1,0,1,963,Self,Exp4a,Implicit
4116,2,21,0,0,1,772,Self,Exp4a,Implicit
4116,2,23,2,1,1,807,Other,Exp4a,Implicit
4116,2,24,2,0,1,675,Self,Exp4a,Implicit
4116,2,25,2,1,1,675,Other,Exp4a,Implicit
4116,2,26,2,0,1,803,Self,Exp4a,Implicit
4116,2,27,1,1,1,701,Self,Exp4a,Implicit
4116,2,28,2,1,1,539,Self,Exp4a,Implicit
4116,2,29,0,1,0,601,Other,Exp4a,Implicit
4116,2,30,1,1,1,798,Other,Exp4a,Implicit
4116,2,31,2,0,1,768,Other,Exp4a,Implicit
4116,2,32,1,0,1,870,Self,Exp4a,Implicit
4116,2,33,1,0,1,1006,Other,Exp4a,Implicit
4116,2,34,0,0,1,814,Self,Exp4a,Implicit
4116,2,35,0,0,1,868,Other,Exp4a,Implicit
4116,2,36,0,1,0,612,Self,Exp4a,Implicit
4116,2,40,1,0,1,339,Other,Exp4a,Implicit
4116,2,41,0,1,1,729,Self,Exp4a,Implicit
4116,2,42,1,0,1,717,Self,Exp4a,Implicit
4116,2,43,2,0,1,937,Other,Exp4a,Implicit
4116,2,44,2,1,0,987,Other,Exp4a,Implicit
4116,2,45,0,0,1,813,Self,Exp4a,Implicit
4116,2,46,0,0,0,550,Other,Exp4a,Implicit
4116,2,47,2,1,1,950,Self,Exp4a,Implicit
4116,2,48,1,1,1,582,Self,Exp4a,Implicit
4116,2,49,2,1,1,409,Self,Exp4a,Implicit
4116,2,50,0,0,1,523,Other,Exp4a,Implicit
4116,2,51,2,0,1,957,Self,Exp4a,Implicit
4116,2,52,0,1,1,981,Self,Exp4a,Implicit
4116,2,53,0,1,0,671,Other,Exp4a,Implicit
4116,2,55,1,0,1,863,Other,Exp4a,Implicit
4116,2,56,1,0,1,848,Self,Exp4a,Implicit
4116,2,57,2,1,1,1088,Other,Exp4a,Implicit
4116,2,58,1,1,1,696,Self,Exp4a,Implicit
4116,3,1,0,1,1,733,Self,Exp4a,Implicit
4116,3,2,1,1,0,711,Other,Exp4a,Implicit
4116,3,3,0,0,1,1019,Self,Exp4a,Implicit
4116,3,4,1,0,1,531,Self,Exp4a,Implicit
4116,3,5,0,1,1,913,Other,Exp4a,Implicit
4116,3,6,2,0,0,702,Other,Exp4a,Implicit
4116,3,7,2,0,1,774,Self,Exp4a,Implicit
4116,3,8,1,1,1,724,Self,Exp4a,Implicit
4116,3,9,1,0,1,692,Other,Exp4a,Implicit
4116,3,10,2,1,1,940,Self,Exp4a,Implicit
4116,3,11,2,1,0,634,Other,Exp4a,Implicit
4116,3,14,0,1,0,606,Self,Exp4a,Implicit
4116,3,15,1,1,1,809,Self,Exp4a,Implicit
4116,3,16,1,0,1,825,Self,Exp4a,Implicit
4116,3,17,0,1,0,669,Other,Exp4a,Implicit
4116,3,18,2,0,0,679,Other,Exp4a,Implicit
4116,3,20,0,0,1,849,Other,Exp4a,Implicit
4116,3,21,2,1,1,1012,Self,Exp4a,Implicit
4116,3,22,1,1,0,886,Other,Exp4a,Implicit
4116,3,23,2,0,1,1021,Self,Exp4a,Implicit
4116,3,25,1,0,1,859,Self,Exp4a,Implicit
4116,3,26,2,1,1,667,Self,Exp4a,Implicit
4116,3,27,0,1,0,847,Other,Exp4a,Implicit
4116,3,28,0,0,0,1055,Other,Exp4a,Implicit
4116,3,30,0,1,1,663,Self,Exp4a,Implicit
4116,3,31,0,0,0,405,Self,Exp4a,Implicit
4116,3,32,2,1,1,1052,Other,Exp4a,Implicit
4116,3,33,1,0,1,868,Other,Exp4a,Implicit
4116,3,35,1,1,1,722,Self,Exp4a,Implicit
4116,3,36,2,0,1,820,Self,Exp4a,Implicit
4116,3,39,1,0,0,587,Other,Exp4a,Implicit
4116,3,40,1,0,1,831,Self,Exp4a,Implicit
4116,3,42,2,1,1,685,Self,Exp4a,Implicit
4116,3,43,2,0,1,939,Other,Exp4a,Implicit
4116,3,44,1,1,0,865,Other,Exp4a,Implicit
4116,3,46,2,0,1,743,Self,Exp4a,Implicit
4116,3,47,0,1,1,865,Other,Exp4a,Implicit
4116,3,48,0,0,1,879,Self,Exp4a,Implicit
4116,3,49,2,1,1,880,Self,Exp4a,Implicit
4116,3,50,2,0,1,810,Self,Exp4a,Implicit
4116,3,51,2,1,1,1070,Other,Exp4a,Implicit
4116,3,52,0,1,1,756,Other,Exp4a,Implicit
4116,3,53,0,0,1,894,Other,Exp4a,Implicit
4116,3,54,1,0,0,846,Self,Exp4a,Implicit
4116,3,55,1,1,1,694,Self,Exp4a,Implicit
4116,3,56,1,0,1,704,Other,Exp4a,Implicit
4116,3,57,0,0,1,1091,Self,Exp4a,Implicit
4116,3,59,2,0,1,915,Other,Exp4a,Implicit
4116,3,60,0,1,1,779,Self,Exp4a,Implicit
4116,4,1,1,1,1,547,Self,Exp4a,Implicit
4116,4,2,0,1,1,703,Other,Exp4a,Implicit
4116,4,3,0,0,1,834,Self,Exp4a,Implicit
4116,4,4,0,1,1,630,Self,Exp4a,Implicit
4116,4,5,0,0,1,546,Other,Exp4a,Implicit
4116,4,6,1,0,0,732,Other,Exp4a,Implicit
4116,4,7,1,0,1,610,Self,Exp4a,Implicit
4116,4,8,1,1,1,1090,Other,Exp4a,Implicit
4116,4,9,2,0,1,1064,Self,Exp4a,Implicit
4116,4,10,2,0,1,822,Other,Exp4a,Implicit
4116,4,11,2,1,1,919,Other,Exp4a,Implicit
4116,4,12,2,1,1,663,Self,Exp4a,Implicit
4116,4,13,1,0,1,597,Other,Exp4a,Implicit
4116,4,14,2,0,1,693,Self,Exp4a,Implicit
4116,4,15,1,1,1,469,Self,Exp4a,Implicit
4116,4,16,2,1,1,439,Self,Exp4a,Implicit
4116,4,17,2,1,0,627,Other,Exp4a,Implicit
4116,4,18,0,0,1,939,Self,Exp4a,Implicit
4116,4,19,1,1,1,851,Other,Exp4a,Implicit
4116,4,20,0,0,1,1050,Other,Exp4a,Implicit
4116,4,21,0,1,1,558,Self,Exp4a,Implicit
4116,4,22,2,0,1,606,Other,Exp4a,Implicit
4116,4,25,1,1,0,562,Other,Exp4a,Implicit
4116,4,26,2,1,1,602,Self,Exp4a,Implicit
4116,4,27,1,0,0,958,Self,Exp4a,Implicit
4116,4,28,0,1,0,762,Other,Exp4a,Implicit
4116,4,29,1,1,1,888,Self,Exp4a,Implicit
4116,4,30,2,1,1,654,Other,Exp4a,Implicit
4116,4,31,0,0,1,714,Other,Exp4a,Implicit
4116,4,32,2,0,0,880,Self,Exp4a,Implicit
4116,4,33,0,0,1,798,Self,Exp4a,Implicit
4116,4,34,1,0,1,742,Other,Exp4a,Implicit
4116,4,35,2,0,1,858,Other,Exp4a,Implicit
4116,4,36,0,1,1,679,Self,Exp4a,Implicit
4116,4,37,1,1,1,974,Other,Exp4a,Implicit
4116,4,39,0,1,1,691,Other,Exp4a,Implicit
4116,4,40,0,0,1,699,Other,Exp4a,Implicit
4116,4,41,0,0,1,1033,Self,Exp4a,Implicit
4116,4,42,0,1,1,951,Self,Exp4a,Implicit
4116,4,43,2,1,1,855,Self,Exp4a,Implicit
4116,4,44,1,1,1,405,Self,Exp4a,Implicit
4116,4,45,2,0,1,942,Self,Exp4a,Implicit
4116,4,48,2,0,1,898,Other,Exp4a,Implicit
4116,4,49,2,1,0,550,Self,Exp4a,Implicit
4116,4,50,1,1,1,432,Self,Exp4a,Implicit
4116,4,51,2,1,0,740,Other,Exp4a,Implicit
4116,4,54,0,1,0,584,Other,Exp4a,Implicit
4116,4,55,0,0,1,891,Other,Exp4a,Implicit
4116,4,56,1,0,1,897,Self,Exp4a,Implicit
4116,4,57,1,1,1,915,Other,Exp4a,Implicit
4116,4,58,0,1,1,657,Self,Exp4a,Implicit
4116,4,59,2,0,1,813,Other,Exp4a,Implicit
4116,4,60,1,0,1,951,Other,Exp4a,Implicit
4116,5,1,2,0,1,867,Self,Exp4a,Implicit
4116,5,3,0,0,1,519,Other,Exp4a,Implicit
4116,5,4,2,1,1,674,Self,Exp4a,Implicit
4116,5,5,1,0,1,634,Self,Exp4a,Implicit
4116,5,6,0,1,1,480,Self,Exp4a,Implicit
4116,5,7,0,1,0,634,Other,Exp4a,Implicit
4116,5,8,1,1,1,604,Self,Exp4a,Implicit
4116,5,9,1,0,1,632,Other,Exp4a,Implicit
4116,5,10,1,1,1,564,Other,Exp4a,Implicit
4116,5,11,0,0,1,768,Self,Exp4a,Implicit
4116,5,13,1,0,1,655,Self,Exp4a,Implicit
4116,5,14,1,1,1,433,Self,Exp4a,Implicit
4116,5,15,0,1,0,565,Other,Exp4a,Implicit
4116,5,16,0,0,1,915,Self,Exp4a,Implicit
4116,5,17,2,0,1,673,Self,Exp4a,Implicit
4116,5,18,0,1,1,737,Self,Exp4a,Implicit
4116,5,19,2,1,1,639,Self,Exp4a,Implicit
4116,5,20,2,1,0,661,Other,Exp4a,Implicit
4116,5,21,2,0,1,839,Other,Exp4a,Implicit
4116,5,22,1,1,1,1064,Other,Exp4a,Implicit
4116,5,23,1,0,1,988,Other,Exp4a,Implicit
4116,5,24,0,0,0,806,Other,Exp4a,Implicit
4116,5,25,0,1,1,1084,Other,Exp4a,Implicit
4116,5,26,2,0,1,786,Other,Exp4a,Implicit
4116,5,27,0,0,1,770,Self,Exp4a,Implicit
4116,5,28,1,0,0,1030,Other,Exp4a,Implicit
4116,5,30,1,1,1,613,Other,Exp4a,Implicit
4116,5,31,1,1,1,581,Self,Exp4a,Implicit
4116,5,32,2,1,1,407,Self,Exp4a,Implicit
4116,5,33,0,1,1,391,Self,Exp4a,Implicit
4116,5,34,0,0,1,847,Other,Exp4a,Implicit
4116,5,35,2,0,1,991,Self,Exp4a,Implicit
4116,5,36,1,0,1,703,Self,Exp4a,Implicit
4116,5,37,1,1,1,894,Other,Exp4a,Implicit
4116,5,38,2,0,1,925,Other,Exp4a,Implicit
4116,5,39,0,0,0,854,Other,Exp4a,Implicit
4116,5,40,1,0,1,813,Self,Exp4a,Implicit
4116,5,41,0,1,1,889,Other,Exp4a,Implicit
4116,5,42,1,1,1,797,Self,Exp4a,Implicit
4116,5,43,2,0,1,927,Self,Exp4a,Implicit
4116,5,44,2,1,1,969,Other,Exp4a,Implicit
4116,5,45,1,0,1,935,Other,Exp4a,Implicit
4116,5,46,2,1,1,609,Self,Exp4a,Implicit
4116,5,47,0,1,1,643,Self,Exp4a,Implicit
4116,5,48,0,0,1,880,Self,Exp4a,Implicit
4116,5,49,0,0,0,848,Other,Exp4a,Implicit
4116,5,50,1,1,1,650,Self,Exp4a,Implicit
4116,5,51,0,1,1,858,Other,Exp4a,Implicit
4116,5,52,0,0,1,858,Self,Exp4a,Implicit
4116,5,53,1,0,1,762,Self,Exp4a,Implicit
4116,5,54,0,1,1,672,Self,Exp4a,Implicit
4116,5,55,2,1,1,605,Self,Exp4a,Implicit
4116,5,56,2,0,1,957,Self,Exp4a,Implicit
4116,5,58,2,0,1,603,Other,Exp4a,Implicit
4116,5,59,2,1,1,825,Other,Exp4a,Implicit
4116,5,60,1,1,1,461,Other,Exp4a,Implicit
4116,6,1,1,1,1,718,Self,Exp4a,Implicit
4116,6,2,2,1,1,406,Self,Exp4a,Implicit
4116,6,3,1,1,1,676,Other,Exp4a,Implicit
4116,6,4,1,0,1,812,Self,Exp4a,Implicit
4116,6,5,2,0,0,865,Other,Exp4a,Implicit
4116,6,6,1,0,0,829,Other,Exp4a,Implicit
4116,6,7,0,0,1,745,Self,Exp4a,Implicit
4116,6,8,2,0,1,639,Self,Exp4a,Implicit
4116,6,9,2,1,1,1009,Other,Exp4a,Implicit
4116,6,10,0,0,1,835,Other,Exp4a,Implicit
4116,6,11,0,1,1,857,Other,Exp4a,Implicit
4116,6,12,0,1,1,995,Self,Exp4a,Implicit
4116,6,13,1,1,1,463,Self,Exp4a,Implicit
4116,6,14,0,0,1,541,Other,Exp4a,Implicit
4116,6,15,2,1,1,685,Self,Exp4a,Implicit
4116,6,16,0,1,1,531,Self,Exp4a,Implicit
4116,6,17,0,0,1,695,Self,Exp4a,Implicit
4116,6,18,2,0,1,695,Self,Exp4a,Implicit
4116,6,19,1,0,1,575,Self,Exp4a,Implicit
4116,6,20,2,1,1,1035,Other,Exp4a,Implicit
4116,6,21,2,0,1,695,Other,Exp4a,Implicit
4116,6,22,1,0,0,698,Other,Exp4a,Implicit
4116,6,23,1,1,1,888,Other,Exp4a,Implicit
4116,6,24,0,1,1,478,Other,Exp4a,Implicit
4116,6,25,2,1,1,406,Other,Exp4a,Implicit
4116,6,26,0,1,1,642,Self,Exp4a,Implicit
4116,6,27,0,0,1,732,Self,Exp4a,Implicit
4116,6,28,0,1,1,636,Other,Exp4a,Implicit
4116,6,29,2,1,1,582,Self,Exp4a,Implicit
4116,6,30,2,0,1,644,Self,Exp4a,Implicit
4116,6,31,1,1,1,550,Self,Exp4a,Implicit
4116,6,32,1,0,1,708,Other,Exp4a,Implicit
4116,6,33,0,0,1,1067,Other,Exp4a,Implicit
4116,6,34,1,0,1,967,Self,Exp4a,Implicit
4116,6,35,2,0,1,799,Other,Exp4a,Implicit
4116,6,36,1,1,1,659,Other,Exp4a,Implicit
4116,6,37,0,0,1,701,Self,Exp4a,Implicit
4116,6,39,2,1,1,810,Self,Exp4a,Implicit
4116,6,40,1,1,1,467,Self,Exp4a,Implicit
4116,6,41,0,1,1,830,Other,Exp4a,Implicit
4116,6,42,2,1,1,576,Other,Exp4a,Implicit
4116,6,43,0,0,1,768,Other,Exp4a,Implicit
4116,6,44,1,0,1,912,Self,Exp4a,Implicit
4116,6,45,1,0,1,836,Other,Exp4a,Implicit
4116,6,46,2,0,1,722,Self,Exp4a,Implicit
4116,6,47,0,1,1,650,Self,Exp4a,Implicit
4116,6,48,2,0,1,650,Other,Exp4a,Implicit
4116,6,49,1,0,0,959,Self,Exp4a,Implicit
4116,6,50,0,1,1,1003,Other,Exp4a,Implicit
4116,6,51,0,1,1,639,Self,Exp4a,Implicit
4116,6,52,2,1,1,563,Self,Exp4a,Implicit
4116,6,53,1,1,1,442,Self,Exp4a,Implicit
4116,6,54,2,0,1,826,Other,Exp4a,Implicit
4116,6,55,1,0,1,680,Other,Exp4a,Implicit
4116,6,58,1,1,0,501,Other,Exp4a,Implicit
4116,6,59,0,0,1,705,Self,Exp4a,Implicit
4116,6,60,0,0,1,699,Other,Exp4a,Implicit
4117,1,1,1,1,1,800,Other,Exp4a,Implicit
4117,1,2,2,1,1,818,Other,Exp4a,Implicit
4117,1,3,2,0,0,366,Other,Exp4a,Implicit
4117,1,4,1,1,1,526,Self,Exp4a,Implicit
4117,1,5,0,1,1,358,Self,Exp4a,Implicit
4117,1,6,2,0,1,827,Self,Exp4a,Implicit
4117,1,7,2,1,1,477,Self,Exp4a,Implicit
4117,1,8,0,0,1,767,Other,Exp4a,Implicit
4117,1,9,1,0,0,585,Self,Exp4a,Implicit
4117,1,10,0,1,1,809,Other,Exp4a,Implicit
4117,1,11,1,0,1,720,Other,Exp4a,Implicit
4117,1,12,0,0,1,724,Self,Exp4a,Implicit
4117,1,13,1,0,1,742,Self,Exp4a,Implicit
4117,1,14,0,0,1,868,Self,Exp4a,Implicit
4117,1,15,0,1,1,672,Other,Exp4a,Implicit
4117,1,16,2,0,1,718,Self,Exp4a,Implicit
4117,1,17,2,1,1,763,Other,Exp4a,Implicit
4117,1,18,1,1,1,659,Other,Exp4a,Implicit
4117,1,19,1,1,1,577,Self,Exp4a,Implicit
4117,1,20,2,0,1,914,Other,Exp4a,Implicit
4117,1,21,0,1,1,496,Self,Exp4a,Implicit
4117,1,22,1,0,1,682,Other,Exp4a,Implicit
4117,1,23,2,1,1,518,Self,Exp4a,Implicit
4117,1,24,0,0,1,665,Other,Exp4a,Implicit
4117,1,25,0,0,1,673,Other,Exp4a,Implicit
4117,1,26,2,1,1,475,Self,Exp4a,Implicit
4117,1,27,1,1,1,563,Self,Exp4a,Implicit
4117,1,28,1,0,1,807,Self,Exp4a,Implicit
4117,1,29,0,1,1,573,Self,Exp4a,Implicit
4117,1,30,2,0,1,736,Self,Exp4a,Implicit
4117,1,31,2,1,0,658,Other,Exp4a,Implicit
4117,1,32,0,0,1,770,Self,Exp4a,Implicit
4117,1,33,1,1,1,786,Other,Exp4a,Implicit
4117,1,34,2,0,1,776,Other,Exp4a,Implicit
4117,1,35,0,1,1,659,Other,Exp4a,Implicit
4117,1,36,1,0,1,943,Other,Exp4a,Implicit
4117,1,37,1,0,1,921,Self,Exp4a,Implicit
4117,1,38,0,0,1,737,Other,Exp4a,Implicit
4117,1,39,1,1,1,693,Other,Exp4a,Implicit
4117,1,40,0,1,1,535,Self,Exp4a,Implicit
4117,1,41,2,1,1,724,Other,Exp4a,Implicit
4117,1,42,0,0,1,642,Self,Exp4a,Implicit
4117,1,43,2,1,1,564,Self,Exp4a,Implicit
4117,1,44,2,0,1,752,Self,Exp4a,Implicit
4117,1,45,0,1,1,668,Other,Exp4a,Implicit
4117,1,46,1,0,1,918,Other,Exp4a,Implicit
4117,1,47,1,1,1,535,Self,Exp4a,Implicit
4117,1,48,2,0,1,660,Other,Exp4a,Implicit
4117,1,49,2,0,1,786,Self,Exp4a,Implicit
4117,1,50,0,0,1,718,Other,Exp4a,Implicit
4117,1,51,2,1,1,628,Other,Exp4a,Implicit
4117,1,52,1,1,1,862,Other,Exp4a,Implicit
4117,1,53,2,0,1,534,Other,Exp4a,Implicit
4117,1,54,0,1,1,627,Other,Exp4a,Implicit
4117,1,55,1,1,1,533,Self,Exp4a,Implicit
4117,1,56,1,0,1,635,Self,Exp4a,Implicit
4117,1,57,0,0,1,663,Self,Exp4a,Implicit
4117,1,58,0,1,1,533,Self,Exp4a,Implicit
4117,1,59,2,1,1,597,Self,Exp4a,Implicit
4117,1,60,1,0,1,576,Other,Exp4a,Implicit
4117,2,1,2,0,1,656,Other,Exp4a,Implicit
4117,2,2,0,0,1,488,Other,Exp4a,Implicit
4117,2,3,0,1,1,414,Self,Exp4a,Implicit
4117,2,4,0,0,1,659,Self,Exp4a,Implicit
4117,2,5,2,0,1,685,Self,Exp4a,Implicit
4117,2,6,0,1,1,640,Other,Exp4a,Implicit
4117,2,7,1,1,0,598,Other,Exp4a,Implicit
4117,2,8,1,0,1,678,Other,Exp4a,Implicit
4117,2,9,1,1,1,630,Self,Exp4a,Implicit
4117,2,10,2,1,1,640,Other,Exp4a,Implicit
4117,2,11,2,1,1,764,Self,Exp4a,Implicit
4117,2,12,1,0,1,823,Self,Exp4a,Implicit
4117,2,13,1,1,1,517,Other,Exp4a,Implicit
4117,2,14,2,0,1,737,Self,Exp4a,Implicit
4117,2,15,0,0,1,643,Self,Exp4a,Implicit
4117,2,16,0,1,1,517,Self,Exp4a,Implicit
4117,2,17,0,1,1,751,Other,Exp4a,Implicit
4117,2,18,2,0,1,706,Other,Exp4a,Implicit
4117,2,19,0,0,1,830,Other,Exp4a,Implicit
4117,2,20,1,0,1,736,Other,Exp4a,Implicit
4117,2,21,2,1,1,584,Other,Exp4a,Implicit
4117,2,22,1,1,1,520,Self,Exp4a,Implicit
4117,2,23,1,0,1,788,Self,Exp4a,Implicit
4117,2,24,2,1,1,586,Self,Exp4a,Implicit
4117,2,25,1,1,1,659,Self,Exp4a,Implicit
4117,2,26,0,0,1,723,Self,Exp4a,Implicit
4117,2,27,1,0,1,751,Other,Exp4a,Implicit
