Subject,BlockNo,TrialNo,Valence,Matchness,ACC,RT,Identity,ExpNo,Self_ref
1001,1,1,2,1,1,495,NA,Exp1a,None
1001,1,2,2,1,0,991,NA,Exp1a,None
1001,1,5,2,0,0,704,NA,Exp1a,None
1001,1,8,1,1,1,1016,NA,Exp1a,None
1001,1,12,0,0,1,865,NA,Exp1a,None
1001,1,13,0,1,1,1049,NA,Exp1a,None
1001,1,14,1,1,0,817,NA,Exp1a,None
1001,1,15,0,1,1,865,NA,Exp1a,None
1001,1,16,2,0,1,1065,NA,Exp1a,None
1001,1,19,1,1,1,953,NA,Exp1a,None
1001,1,20,0,0,1,937,NA,Exp1a,None
1001,1,22,2,0,0,775,NA,Exp1a,None
1001,1,26,0,1,1,584,NA,Exp1a,None
1001,1,28,0,0,0,856,NA,Exp1a,None
1001,1,29,1,0,1,792,NA,Exp1a,None
1001,1,30,1,1,1,1008,NA,Exp1a,None
1001,1,32,0,1,1,633,NA,Exp1a,None
1001,1,33,0,0,1,913,NA,Exp1a,None
1001,1,34,2,1,0,1033,NA,Exp1a,None
1001,1,35,1,1,1,993,NA,Exp1a,None
1001,1,36,2,0,1,929,NA,Exp1a,None
1001,1,38,1,1,1,866,NA,Exp1a,None
1001,1,39,2,1,0,762,NA,Exp1a,None
1001,1,40,1,0,0,730,NA,Exp1a,None
1001,1,42,1,0,1,1010,NA,Exp1a,None
1001,1,43,2,0,1,1098,NA,Exp1a,None
1001,1,45,0,1,1,592,NA,Exp1a,None
1001,1,46,2,0,1,865,NA,Exp1a,None
1001,1,47,0,1,1,648,NA,Exp1a,None
1001,1,48,0,0,1,776,NA,Exp1a,None
1001,1,49,1,1,0,880,NA,Exp1a,None
1001,1,50,2,1,0,888,NA,Exp1a,None
1001,1,51,0,0,0,777,NA,Exp1a,None
1001,1,52,0,1,1,641,NA,Exp1a,None
1001,1,55,2,0,1,841,NA,Exp1a,None
1001,1,56,1,0,0,1097,NA,Exp1a,None
1001,1,57,1,1,0,617,NA,Exp1a,None
1001,1,59,0,1,1,546,NA,Exp1a,None
1001,1,60,1,0,1,866,NA,Exp1a,None
1001,2,1,2,0,0,697,NA,Exp1a,None
1001,2,2,0,0,1,993,NA,Exp1a,None
1001,2,3,0,1,1,945,NA,Exp1a,None
1001,2,5,1,0,0,831,NA,Exp1a,None
1001,2,6,0,0,1,896,NA,Exp1a,None
1001,2,8,1,1,1,672,NA,Exp1a,None
1001,2,9,0,1,1,720,NA,Exp1a,None
1001,2,10,2,1,0,888,NA,Exp1a,None
1001,2,11,2,1,0,815,NA,Exp1a,None
1001,2,13,2,1,1,976,NA,Exp1a,None
1001,2,14,1,0,1,752,NA,Exp1a,None
1001,2,15,1,0,1,864,NA,Exp1a,None
1001,2,16,2,1,1,784,NA,Exp1a,None
1001,2,17,2,0,1,1024,NA,Exp1a,None
1001,2,18,2,0,1,840,NA,Exp1a,None
1001,2,19,0,1,1,761,NA,Exp1a,None
1001,2,20,0,1,1,594,NA,Exp1a,None
1001,2,21,0,0,0,811,NA,Exp1a,None
1001,2,22,0,0,0,659,NA,Exp1a,None
1001,2,23,1,1,0,619,NA,Exp1a,None
1001,2,25,0,0,0,731,NA,Exp1a,None
1001,2,26,0,1,1,676,NA,Exp1a,None
1001,2,27,2,1,0,780,NA,Exp1a,None
1001,2,29,2,0,1,724,NA,Exp1a,None
1001,2,30,0,0,1,836,NA,Exp1a,None
1001,2,31,0,1,1,716,NA,Exp1a,None
1001,2,32,2,1,1,980,NA,Exp1a,None
1001,2,33,2,0,1,821,NA,Exp1a,None
1001,2,34,1,1,0,1061,NA,Exp1a,None
1001,2,36,1,1,1,429,NA,Exp1a,None
1001,2,37,2,1,0,621,NA,Exp1a,None
1001,2,39,0,0,0,467,NA,Exp1a,None
1001,2,41,0,1,1,427,NA,Exp1a,None
1001,2,42,1,0,1,643,NA,Exp1a,None
1001,2,43,0,1,1,611,NA,Exp1a,None
1001,2,44,2,0,0,915,NA,Exp1a,None
1001,2,46,2,1,0,772,NA,Exp1a,None
1001,2,48,2,0,1,724,NA,Exp1a,None
1001,2,49,1,1,0,628,NA,Exp1a,None
1001,2,51,2,0,0,788,NA,Exp1a,None
1001,2,52,1,1,0,708,NA,Exp1a,None
1001,2,54,2,1,0,709,NA,Exp1a,None
1001,2,55,0,0,1,965,NA,Exp1a,None
1001,2,56,0,1,1,509,NA,Exp1a,None
1001,2,57,1,0,0,717,NA,Exp1a,None
1001,2,59,2,0,1,901,NA,Exp1a,None
1001,2,60,0,1,1,870,NA,Exp1a,None
1001,3,2,0,1,1,641,NA,Exp1a,None
1001,3,3,0,0,1,984,NA,Exp1a,None
1001,3,4,2,0,1,792,NA,Exp1a,None
1001,3,7,1,0,0,832,NA,Exp1a,None
1001,3,8,0,0,0,1065,NA,Exp1a,None
1001,3,10,2,0,1,1009,NA,Exp1a,None
1001,3,11,0,1,1,561,NA,Exp1a,None
1001,3,12,1,1,1,897,NA,Exp1a,None
1001,3,13,2,1,1,865,NA,Exp1a,None
1001,3,15,1,0,1,642,NA,Exp1a,None
1001,3,16,0,0,1,858,NA,Exp1a,None
1001,3,17,0,0,1,754,NA,Exp1a,None
1001,3,18,0,1,1,738,NA,Exp1a,None
1001,3,19,2,0,1,746,NA,Exp1a,None
1001,3,20,0,1,1,602,NA,Exp1a,None
1001,3,21,1,0,0,643,NA,Exp1a,None
1001,3,22,1,1,0,859,NA,Exp1a,None
1001,3,23,1,1,1,931,NA,Exp1a,None
1001,3,24,2,1,0,899,NA,Exp1a,None
1001,3,25,0,0,0,643,NA,Exp1a,None
1001,3,26,0,0,1,875,NA,Exp1a,None
1001,3,27,0,1,1,708,NA,Exp1a,None
1001,3,28,1,0,1,692,NA,Exp1a,None
1001,3,30,2,0,1,748,NA,Exp1a,None
1001,3,32,1,0,0,1028,NA,Exp1a,None
1001,3,33,2,1,1,804,NA,Exp1a,None
1001,3,34,2,1,0,620,NA,Exp1a,None
1001,3,35,2,0,1,820,NA,Exp1a,None
1001,3,36,0,1,1,436,NA,Exp1a,None
1001,3,37,2,1,1,1004,NA,Exp1a,None
1001,3,38,0,0,1,948,NA,Exp1a,None
1001,3,39,1,1,1,780,NA,Exp1a,None
1001,3,40,2,0,1,660,NA,Exp1a,None
1001,3,41,2,0,1,757,NA,Exp1a,None
1001,3,42,0,0,1,885,NA,Exp1a,None
1001,3,43,2,1,1,1093,NA,Exp1a,None
1001,3,44,1,0,1,821,NA,Exp1a,None
1001,3,45,1,0,0,549,NA,Exp1a,None
1001,3,46,0,1,1,469,NA,Exp1a,None
1001,3,47,1,1,0,886,NA,Exp1a,None
1001,3,48,0,1,1,478,NA,Exp1a,None
1001,3,49,2,0,1,726,NA,Exp1a,None
1001,3,50,2,1,1,838,NA,Exp1a,None
1001,3,51,1,1,1,1054,NA,Exp1a,None
1001,3,52,0,1,1,502,NA,Exp1a,None
1001,3,53,2,1,1,854,NA,Exp1a,None
1001,3,54,0,0,1,871,NA,Exp1a,None
1001,3,56,1,0,1,855,NA,Exp1a,None
1001,3,57,0,1,1,743,NA,Exp1a,None
1001,3,58,2,0,1,1079,NA,Exp1a,None
1001,3,59,1,1,1,919,NA,Exp1a,None
1001,3,60,0,0,1,623,NA,Exp1a,None
1001,4,1,2,1,0,618,NA,Exp1a,None
1001,4,2,0,0,0,731,NA,Exp1a,None
1001,4,3,1,1,1,1004,NA,Exp1a,None
1001,4,4,1,1,1,732,NA,Exp1a,None
1001,4,5,0,1,1,524,NA,Exp1a,None
1001,4,6,1,0,0,492,NA,Exp1a,None
1001,4,7,2,0,0,972,NA,Exp1a,None
1001,4,8,2,1,1,981,NA,Exp1a,None
1001,4,9,0,1,1,581,NA,Exp1a,None
1001,4,10,2,0,1,781,NA,Exp1a,None
1001,4,11,1,0,0,717,NA,Exp1a,None
1001,4,12,0,0,0,1021,NA,Exp1a,None
1001,4,13,0,1,1,469,NA,Exp1a,None
1001,4,14,2,0,1,909,NA,Exp1a,None
1001,4,15,1,1,1,1014,NA,Exp1a,None
1001,4,16,1,0,1,974,NA,Exp1a,None
1001,4,17,0,1,1,574,NA,Exp1a,None
1001,4,18,0,0,1,902,NA,Exp1a,None
1001,4,19,2,1,1,806,NA,Exp1a,None
1001,4,20,1,0,1,774,NA,Exp1a,None
1001,4,21,2,0,0,918,NA,Exp1a,None
1001,4,22,0,0,0,520,NA,Exp1a,None
1001,4,23,2,1,1,745,NA,Exp1a,None
1001,4,24,1,1,0,897,NA,Exp1a,None
1001,4,25,0,0,1,801,NA,Exp1a,None
1001,4,26,2,0,0,800,NA,Exp1a,None
1001,4,27,0,0,1,1096,NA,Exp1a,None
1001,4,28,1,1,1,889,NA,Exp1a,None
1001,4,29,0,1,1,769,NA,Exp1a,None
1001,4,31,1,1,1,697,NA,Exp1a,None
1001,4,32,2,0,1,849,NA,Exp1a,None
1001,4,33,2,1,0,969,NA,Exp1a,None
1001,4,34,1,0,1,801,NA,Exp1a,None
1001,4,35,0,1,1,554,NA,Exp1a,None
1001,4,36,1,0,0,770,NA,Exp1a,None
1001,4,38,1,0,0,618,NA,Exp1a,None
1001,4,39,1,1,1,970,NA,Exp1a,None
1001,4,40,0,1,1,474,NA,Exp1a,None
1001,4,41,2,1,1,754,NA,Exp1a,None
1001,4,42,2,0,1,740,NA,Exp1a,None
1001,4,43,0,1,1,541,NA,Exp1a,None
1001,4,44,1,1,0,709,NA,Exp1a,None
1001,4,45,1,0,1,837,NA,Exp1a,None
1001,4,46,0,0,0,997,NA,Exp1a,None
1001,4,48,0,0,1,734,NA,Exp1a,None
1001,4,50,0,1,1,542,NA,Exp1a,None
1001,4,51,2,1,1,934,NA,Exp1a,None
1001,4,52,2,0,1,758,NA,Exp1a,None
1001,4,53,0,0,1,710,NA,Exp1a,None
1001,4,54,2,0,0,958,NA,Exp1a,None
1001,4,55,0,0,1,1039,NA,Exp1a,None
1001,4,56,1,1,1,926,NA,Exp1a,None
1001,4,57,1,1,0,630,NA,Exp1a,None
1001,4,58,0,1,1,622,NA,Exp1a,None
1001,4,59,1,0,1,774,NA,Exp1a,None
1001,4,60,2,1,1,1022,NA,Exp1a,None
1001,5,1,2,0,1,679,NA,Exp1a,None
1001,5,2,0,0,1,736,NA,Exp1a,None
1001,5,3,1,0,1,752,NA,Exp1a,None
1001,5,4,1,1,1,864,NA,Exp1a,None
1001,5,5,0,0,1,848,NA,Exp1a,None
1001,5,6,0,1,1,672,NA,Exp1a,None
1001,5,7,2,0,1,832,NA,Exp1a,None
1001,5,8,1,1,1,888,NA,Exp1a,None
1001,5,9,1,0,1,641,NA,Exp1a,None
1001,5,10,2,1,1,753,NA,Exp1a,None
1001,5,11,0,1,1,641,NA,Exp1a,None
1001,5,12,2,1,1,625,NA,Exp1a,None
1001,5,13,2,1,0,721,NA,Exp1a,None
1001,5,16,0,0,1,778,NA,Exp1a,None
1001,5,17,1,1,1,594,NA,Exp1a,None
1001,5,18,0,0,1,602,NA,Exp1a,None
1001,5,19,1,0,0,818,NA,Exp1a,None
1001,5,20,0,1,1,641,NA,Exp1a,None
1001,5,21,1,1,1,1001,NA,Exp1a,None
1001,5,22,2,1,0,602,NA,Exp1a,None
1001,5,23,0,1,1,562,NA,Exp1a,None
1001,5,24,2,0,1,826,NA,Exp1a,None
1001,5,25,0,1,1,778,NA,Exp1a,None
1001,5,26,0,1,1,642,NA,Exp1a,None
1001,5,27,2,0,1,722,NA,Exp1a,None
1001,5,28,1,1,1,770,NA,Exp1a,None
1001,5,29,1,0,1,675,NA,Exp1a,None
1001,5,30,1,1,1,707,NA,Exp1a,None
1001,5,31,0,0,1,747,NA,Exp1a,None
1001,5,32,2,0,0,851,NA,Exp1a,None
1001,5,33,2,1,1,603,NA,Exp1a,None
1001,5,34,0,0,1,835,NA,Exp1a,None
1001,5,35,1,0,0,604,NA,Exp1a,None
1001,5,36,2,1,0,845,NA,Exp1a,None
1001,5,37,2,1,1,630,NA,Exp1a,None
1001,5,38,0,0,1,670,NA,Exp1a,None
1001,5,39,1,1,1,662,NA,Exp1a,None
1001,5,40,2,0,1,694,NA,Exp1a,None
1001,5,41,0,0,1,782,NA,Exp1a,None
1001,5,42,1,0,0,615,NA,Exp1a,None
1001,5,43,0,1,1,551,NA,Exp1a,None
1001,5,44,2,1,1,855,NA,Exp1a,None
1001,5,45,0,1,1,775,NA,Exp1a,None
1001,5,46,1,1,1,871,NA,Exp1a,None
1001,5,47,1,0,1,823,NA,Exp1a,None
1001,5,48,2,0,1,1031,NA,Exp1a,None
1001,5,49,1,1,1,736,NA,Exp1a,None
1001,5,50,0,0,1,719,NA,Exp1a,None
1001,5,51,2,0,0,503,NA,Exp1a,None
1001,5,52,0,1,1,495,NA,Exp1a,None
1001,5,53,1,0,1,735,NA,Exp1a,None
1001,5,54,2,1,1,607,NA,Exp1a,None
1001,5,55,2,0,1,800,NA,Exp1a,None
1001,5,56,0,1,1,441,NA,Exp1a,None
1001,5,57,2,1,1,850,NA,Exp1a,None
1001,5,58,0,0,1,874,NA,Exp1a,None
1001,5,59,1,0,0,914,NA,Exp1a,None
1001,5,60,1,1,1,706,NA,Exp1a,None
1001,6,2,1,0,1,834,NA,Exp1a,None
1001,6,3,0,0,1,954,NA,Exp1a,None
1001,6,4,1,0,1,922,NA,Exp1a,None
1001,6,5,0,0,1,770,NA,Exp1a,None
1001,6,6,0,1,0,642,NA,Exp1a,None
1001,6,7,2,0,1,866,NA,Exp1a,None
1001,6,8,1,1,1,834,NA,Exp1a,None
1001,6,9,1,1,1,555,NA,Exp1a,None
1001,6,10,0,1,1,675,NA,Exp1a,None
1001,6,11,2,1,1,651,NA,Exp1a,None
1001,6,12,2,1,0,899,NA,Exp1a,None
1001,6,13,2,0,1,754,NA,Exp1a,None
1001,6,14,2,1,1,786,NA,Exp1a,None
1001,6,15,0,1,1,578,NA,Exp1a,None
1001,6,16,2,1,1,707,NA,Exp1a,None
1001,6,17,0,1,1,691,NA,Exp1a,None
1001,6,18,1,0,1,747,NA,Exp1a,None
1001,6,19,0,0,1,1059,NA,Exp1a,None
1001,6,21,1,1,1,683,NA,Exp1a,None
1001,6,22,1,1,1,444,NA,Exp1a,None
1001,6,23,0,0,1,660,NA,Exp1a,None
1001,6,24,2,0,1,676,NA,Exp1a,None
1001,6,25,2,0,0,796,NA,Exp1a,None
1001,6,26,0,0,0,748,NA,Exp1a,None
1001,6,27,1,0,1,1004,NA,Exp1a,None
1001,6,28,2,0,1,756,NA,Exp1a,None
1001,6,29,2,1,1,933,NA,Exp1a,None
1001,6,30,0,1,1,685,NA,Exp1a,None
1001,6,31,0,0,1,1085,NA,Exp1a,None
1001,6,32,1,0,1,773,NA,Exp1a,None
1001,6,33,2,1,1,813,NA,Exp1a,None
1001,6,34,0,1,1,645,NA,Exp1a,None
1001,6,35,1,1,0,797,NA,Exp1a,None
1001,6,36,1,1,1,606,NA,Exp1a,None
1001,6,37,1,0,1,822,NA,Exp1a,None
1001,6,38,1,1,1,1078,NA,Exp1a,None
1001,6,39,2,1,1,958,NA,Exp1a,None
1001,6,40,0,0,1,694,NA,Exp1a,None
1001,6,41,0,1,1,694,NA,Exp1a,None
1001,6,42,2,0,1,1054,NA,Exp1a,None
1001,6,43,2,0,1,719,NA,Exp1a,None
1001,6,44,1,1,1,630,NA,Exp1a,None
1001,6,45,0,1,1,718,NA,Exp1a,None
1001,6,46,1,0,1,846,NA,Exp1a,None
1001,6,47,0,0,1,718,NA,Exp1a,None
1001,6,48,2,1,0,702,NA,Exp1a,None
1001,6,49,1,0,0,679,NA,Exp1a,None
1001,6,50,2,0,1,887,NA,Exp1a,None
1001,6,51,2,0,1,951,NA,Exp1a,None
1001,6,52,1,1,1,639,NA,Exp1a,None
1001,6,53,0,1,1,543,NA,Exp1a,None
1001,6,54,1,1,1,1063,NA,Exp1a,None
1001,6,55,1,0,1,592,NA,Exp1a,None
1001,6,56,2,1,1,704,NA,Exp1a,None
1001,6,57,2,1,1,576,NA,Exp1a,None
1001,6,58,0,1,1,616,NA,Exp1a,None
1001,6,59,0,0,1,808,NA,Exp1a,None
1001,6,60,0,0,0,656,NA,Exp1a,None
1002,1,1,0,0,1,792,NA,Exp1a,None
1002,1,2,1,0,0,1056,NA,Exp1a,None
1002,1,3,2,0,1,872,NA,Exp1a,None
1002,1,4,1,1,0,937,NA,Exp1a,None
1002,1,5,1,0,0,785,NA,Exp1a,None
1002,1,6,2,1,0,881,NA,Exp1a,None
1002,1,7,0,1,1,929,NA,Exp1a,None
1002,1,8,2,1,0,753,NA,Exp1a,None
1002,1,9,0,1,1,905,NA,Exp1a,None
1002,1,10,1,1,0,922,NA,Exp1a,None
1002,1,13,1,0,1,938,NA,Exp1a,None
1002,1,16,0,1,1,882,NA,Exp1a,None
1002,1,17,2,0,1,827,NA,Exp1a,None
1002,1,18,1,0,1,1043,NA,Exp1a,None
1002,1,19,0,1,1,739,NA,Exp1a,None
1002,1,20,1,1,0,755,NA,Exp1a,None
1002,1,21,0,0,1,1003,NA,Exp1a,None
1002,1,22,2,0,1,843,NA,Exp1a,None
1002,1,23,2,1,0,931,NA,Exp1a,None
1002,1,25,1,1,0,708,NA,Exp1a,None
1002,1,26,2,1,0,819,NA,Exp1a,None
1002,1,27,1,1,0,947,NA,Exp1a,None
1002,1,28,2,0,0,835,NA,Exp1a,None
1002,1,29,0,0,1,923,NA,Exp1a,None
1002,1,30,2,1,0,827,NA,Exp1a,None
1002,1,31,1,0,1,836,NA,Exp1a,None
1002,1,32,0,0,1,812,NA,Exp1a,None
1002,1,33,1,0,0,916,NA,Exp1a,None
1002,1,34,2,0,1,956,NA,Exp1a,None
1002,1,35,0,1,1,844,NA,Exp1a,None
1002,1,36,0,1,0,748,NA,Exp1a,None
1002,1,37,0,0,1,852,NA,Exp1a,None
1002,1,38,2,1,1,853,NA,Exp1a,None
1002,1,39,1,1,1,861,NA,Exp1a,None
1002,1,40,2,1,1,805,NA,Exp1a,None
1002,1,41,1,1,1,989,NA,Exp1a,None
1002,1,43,0,0,1,957,NA,Exp1a,None
1002,1,44,2,0,1,933,NA,Exp1a,None
1002,1,46,0,1,1,824,NA,Exp1a,None
1002,1,47,1,0,0,824,NA,Exp1a,None
1002,1,48,1,0,1,896,NA,Exp1a,None
1002,1,49,1,0,1,912,NA,Exp1a,None
1002,1,50,0,1,1,656,NA,Exp1a,None
1002,1,51,2,0,1,857,NA,Exp1a,None
1002,1,52,0,1,1,690,NA,Exp1a,None
1002,1,53,1,1,0,803,NA,Exp1a,None
1002,1,54,0,0,0,819,NA,Exp1a,None
1002,1,55,2,1,1,755,NA,Exp1a,None
1002,1,56,0,0,1,786,NA,Exp1a,None
1002,1,57,1,1,1,826,NA,Exp1a,None
1002,1,59,2,0,1,787,NA,Exp1a,None
1002,1,60,1,0,1,803,NA,Exp1a,None
1002,2,1,2,0,1,652,NA,Exp1a,None
1002,2,2,1,1,0,916,NA,Exp1a,None
1002,2,3,0,0,1,780,NA,Exp1a,None
1002,2,4,1,0,0,676,NA,Exp1a,None
1002,2,5,1,1,1,820,NA,Exp1a,None
1002,2,6,2,1,0,853,NA,Exp1a,None
1002,2,7,0,0,1,933,NA,Exp1a,None
1002,2,8,1,0,1,933,NA,Exp1a,None
1002,2,9,0,1,1,725,NA,Exp1a,None
1002,2,10,2,1,0,893,NA,Exp1a,None
1002,2,11,0,1,1,621,NA,Exp1a,None
1002,2,12,2,0,1,854,NA,Exp1a,None
1002,2,13,2,1,1,1030,NA,Exp1a,None
1002,2,14,1,0,1,958,NA,Exp1a,None
1002,2,15,0,1,1,606,NA,Exp1a,None
1002,2,16,2,1,1,910,NA,Exp1a,None
1002,2,17,1,0,1,846,NA,Exp1a,None
1002,2,18,1,1,0,638,NA,Exp1a,None
1002,2,19,2,0,0,767,NA,Exp1a,None
1002,2,20,0,0,1,902,NA,Exp1a,None
1002,2,21,2,0,1,982,NA,Exp1a,None
1002,2,22,0,0,1,1054,NA,Exp1a,None
1002,2,23,0,1,1,590,NA,Exp1a,None
1002,2,24,1,1,0,806,NA,Exp1a,None
1002,2,27,1,0,0,943,NA,Exp1a,None
1002,2,28,2,1,1,935,NA,Exp1a,None
1002,2,29,0,0,1,1015,NA,Exp1a,None
1002,2,31,0,0,0,983,NA,Exp1a,None
1002,2,33,2,0,1,768,NA,Exp1a,None
1002,2,34,2,0,0,832,NA,Exp1a,None
1002,2,35,0,1,1,808,NA,Exp1a,None
1002,2,36,2,1,1,808,NA,Exp1a,None
1002,2,37,1,1,1,912,NA,Exp1a,None
1002,2,38,0,1,1,784,NA,Exp1a,None
1002,2,39,0,0,0,729,NA,Exp1a,None
1002,2,40,1,1,1,1057,NA,Exp1a,None
1002,2,42,1,0,1,873,NA,Exp1a,None
1002,2,43,2,0,1,977,NA,Exp1a,None
1002,2,44,2,1,1,817,NA,Exp1a,None
1002,2,45,1,0,1,889,NA,Exp1a,None
1002,2,46,0,0,1,858,NA,Exp1a,None
1002,2,47,0,1,1,642,NA,Exp1a,None
1002,2,48,2,1,1,706,NA,Exp1a,None
1002,2,49,1,0,1,729,NA,Exp1a,None
1002,2,50,2,0,1,761,NA,Exp1a,None
1002,2,51,0,1,1,673,NA,Exp1a,None
1002,2,52,1,1,1,817,NA,Exp1a,None
1002,2,53,0,0,1,786,NA,Exp1a,None
1002,2,54,1,0,0,818,NA,Exp1a,None
1002,2,55,2,1,1,770,NA,Exp1a,None
1002,2,56,2,0,1,690,NA,Exp1a,None
1002,2,57,1,1,1,914,NA,Exp1a,None
1002,2,58,2,1,1,810,NA,Exp1a,None
1002,2,59,0,0,1,706,NA,Exp1a,None
1002,2,60,0,1,1,707,NA,Exp1a,None
1002,3,1,2,0,1,806,NA,Exp1a,None
1002,3,2,2,1,1,774,NA,Exp1a,None
1002,3,3,2,1,1,678,NA,Exp1a,None
1002,3,4,1,1,0,806,NA,Exp1a,None
1002,3,5,0,0,1,774,NA,Exp1a,None
1002,3,6,1,1,0,886,NA,Exp1a,None
1002,3,7,1,0,0,719,NA,Exp1a,None
1002,3,8,0,0,1,1015,NA,Exp1a,None
1002,3,9,1,0,1,807,NA,Exp1a,None
1002,3,10,2,0,1,1039,NA,Exp1a,None
1002,3,11,0,1,1,743,NA,Exp1a,None
1002,3,12,0,1,0,886,NA,Exp1a,None
1002,3,13,0,1,1,766,NA,Exp1a,None
1002,3,14,1,0,0,903,NA,Exp1a,None
1002,3,15,0,0,1,871,NA,Exp1a,None
1002,3,16,2,1,1,639,NA,Exp1a,None
1002,3,17,2,0,1,655,NA,Exp1a,None
1002,3,18,2,0,1,847,NA,Exp1a,None
1002,3,19,0,0,1,917,NA,Exp1a,None
1002,3,20,1,1,1,974,NA,Exp1a,None
1002,3,21,1,0,1,966,NA,Exp1a,None
1002,3,22,1,1,1,998,NA,Exp1a,None
1002,3,23,0,1,1,670,NA,Exp1a,None
1002,3,24,2,1,1,558,NA,Exp1a,None
1002,3,25,0,1,0,798,NA,Exp1a,None
1002,3,26,2,0,1,886,NA,Exp1a,None
1002,3,27,0,0,0,775,NA,Exp1a,None
1002,3,28,1,1,1,999,NA,Exp1a,None
1002,3,29,1,0,1,959,NA,Exp1a,None
1002,3,30,2,0,0,727,NA,Exp1a,None
1002,3,31,2,1,1,711,NA,Exp1a,None
1002,3,32,0,1,1,615,NA,Exp1a,None
1002,3,33,1,1,1,895,NA,Exp1a,None
1002,3,34,0,0,0,696,NA,Exp1a,None
1002,3,35,2,1,1,960,NA,Exp1a,None
1002,3,36,1,0,1,848,NA,Exp1a,None
1002,3,37,0,1,1,608,NA,Exp1a,None
1002,3,38,2,1,1,952,NA,Exp1a,None
1002,3,39,1,1,1,712,NA,Exp1a,None
1002,3,40,2,0,1,864,NA,Exp1a,None
1002,3,41,1,0,0,753,NA,Exp1a,None
1002,3,42,2,1,1,912,NA,Exp1a,None
1002,3,43,1,0,1,744,NA,Exp1a,None
1002,3,44,1,1,1,872,NA,Exp1a,None
1002,3,47,2,0,0,559,NA,Exp1a,None
1002,3,48,0,0,1,919,NA,Exp1a,None
1002,3,49,2,1,1,847,NA,Exp1a,None
1002,3,50,1,0,1,855,NA,Exp1a,None
1002,3,51,2,0,1,871,NA,Exp1a,None
1002,3,52,1,1,1,871,NA,Exp1a,None
1002,3,53,0,0,1,775,NA,Exp1a,None
1002,3,54,2,0,1,816,NA,Exp1a,None
1002,3,55,0,1,1,648,NA,Exp1a,None
1002,3,56,1,1,0,624,NA,Exp1a,None
1002,3,57,0,0,1,832,NA,Exp1a,None
1002,3,58,1,0,0,688,NA,Exp1a,None
1002,3,59,0,1,1,776,NA,Exp1a,None
1002,3,60,2,1,1,872,NA,Exp1a,None
1002,4,1,2,0,1,676,NA,Exp1a,None
1002,4,2,2,1,1,884,NA,Exp1a,None
1002,4,3,0,1,1,612,NA,Exp1a,None
1002,4,4,0,0,1,780,NA,Exp1a,None
1002,4,5,2,1,1,724,NA,Exp1a,None
1002,4,6,1,0,1,684,NA,Exp1a,None
1002,4,7,1,1,1,787,NA,Exp1a,None
1002,4,8,0,0,1,780,NA,Exp1a,None
1002,4,9,1,0,1,828,NA,Exp1a,None
1002,4,10,0,1,1,588,NA,Exp1a,None
1002,4,11,1,1,1,636,NA,Exp1a,None
1002,4,12,2,0,1,732,NA,Exp1a,None
1002,4,13,2,0,1,740,NA,Exp1a,None
1002,4,14,2,1,1,764,NA,Exp1a,None
1002,4,15,2,0,1,725,NA,Exp1a,None
1002,4,16,0,1,1,509,NA,Exp1a,None
1002,4,17,2,1,1,805,NA,Exp1a,None
1002,4,18,0,1,0,589,NA,Exp1a,None
1002,4,19,0,0,1,789,NA,Exp1a,None
1002,4,20,1,1,1,749,NA,Exp1a,None
1002,4,21,1,1,1,638,NA,Exp1a,None
1002,4,22,0,0,1,678,NA,Exp1a,None
1002,4,23,1,0,0,718,NA,Exp1a,None
1002,4,24,1,0,1,806,NA,Exp1a,None
1002,4,25,1,0,1,998,NA,Exp1a,None
1002,4,26,0,1,1,582,NA,Exp1a,None
1002,4,27,1,0,1,846,NA,Exp1a,None
1002,4,28,1,1,1,759,NA,Exp1a,None
1002,4,29,2,1,0,807,NA,Exp1a,None
1002,4,30,1,1,1,903,NA,Exp1a,None
1002,4,31,0,1,1,591,NA,Exp1a,None
1002,4,32,0,0,1,743,NA,Exp1a,None
1002,4,33,0,0,0,671,NA,Exp1a,None
1002,4,34,2,1,1,623,NA,Exp1a,None
1002,4,35,2,0,0,863,NA,Exp1a,None
1002,4,36,2,0,1,895,NA,Exp1a,None
1002,4,39,0,1,1,527,NA,Exp1a,None
1002,4,40,2,0,1,743,NA,Exp1a,None
1002,4,41,1,0,0,592,NA,Exp1a,None
1002,4,42,2,1,1,800,NA,Exp1a,None
1002,4,43,0,1,1,856,NA,Exp1a,None
1002,4,44,0,0,1,784,NA,Exp1a,None
1002,4,45,1,1,1,1080,NA,Exp1a,None
1002,4,47,1,1,1,592,NA,Exp1a,None
1002,4,48,2,1,1,753,NA,Exp1a,None
1002,4,49,1,1,1,1041,NA,Exp1a,None
1002,4,50,1,0,1,753,NA,Exp1a,None
1002,4,51,2,0,0,625,NA,Exp1a,None
1002,4,52,2,1,1,921,NA,Exp1a,None
1002,4,53,0,1,1,881,NA,Exp1a,None
1002,4,54,1,0,1,721,NA,Exp1a,None
1002,4,55,0,0,1,842,NA,Exp1a,None
1002,4,56,0,0,1,858,NA,Exp1a,None
1002,4,57,1,1,1,906,NA,Exp1a,None
1002,4,58,2,0,1,770,NA,Exp1a,None
1002,4,59,0,1,1,570,NA,Exp1a,None
1002,4,60,2,1,1,786,NA,Exp1a,None
1002,5,2,0,1,1,557,NA,Exp1a,None
1002,5,3,0,0,1,749,NA,Exp1a,None
1002,5,4,2,1,1,901,NA,Exp1a,None
1002,5,5,2,0,1,669,NA,Exp1a,None
1002,5,6,2,1,1,597,NA,Exp1a,None
1002,5,7,1,1,1,757,NA,Exp1a,None
1002,5,8,1,1,1,693,NA,Exp1a,None
1002,5,9,1,0,1,606,NA,Exp1a,None
1002,5,10,0,1,1,566,NA,Exp1a,None
1002,5,11,1,0,1,638,NA,Exp1a,None
1002,5,12,0,0,1,782,NA,Exp1a,None
1002,5,13,1,0,1,822,NA,Exp1a,None
1002,5,14,2,0,0,798,NA,Exp1a,None
1002,5,15,0,1,1,607,NA,Exp1a,None
1002,5,16,0,0,1,727,NA,Exp1a,None
1002,5,17,1,0,1,759,NA,Exp1a,None
1002,5,18,2,1,0,823,NA,Exp1a,None
1002,5,19,0,0,0,655,NA,Exp1a,None
1002,5,20,1,1,1,1039,NA,Exp1a,None
1002,5,21,2,1,1,919,NA,Exp1a,None
1002,5,22,1,1,0,848,NA,Exp1a,None
1002,5,23,2,0,0,648,NA,Exp1a,None
1002,5,24,0,1,1,688,NA,Exp1a,None
1002,5,25,2,0,1,856,NA,Exp1a,None
1002,5,26,1,1,1,920,NA,Exp1a,None
1002,5,27,2,1,1,680,NA,Exp1a,None
1002,5,28,1,0,1,784,NA,Exp1a,None
1002,5,29,0,0,0,521,NA,Exp1a,None
1002,5,30,0,1,1,504,NA,Exp1a,None
1002,5,31,0,0,1,848,NA,Exp1a,None
1002,5,32,1,0,1,792,NA,Exp1a,None
1002,5,33,0,1,1,560,NA,Exp1a,None
1002,5,34,2,0,1,880,NA,Exp1a,None
1002,5,35,2,1,1,513,NA,Exp1a,None
1002,5,36,1,1,1,801,NA,Exp1a,None
1002,5,37,2,1,1,777,NA,Exp1a,None
1002,5,38,0,1,1,665,NA,Exp1a,None
1002,5,39,1,0,1,665,NA,Exp1a,None
1002,5,40,1,1,1,801,NA,Exp1a,None
1002,5,41,2,0,1,753,NA,Exp1a,None
1002,5,42,1,0,1,1090,NA,Exp1a,None
1002,5,43,0,0,0,682,NA,Exp1a,None
1002,5,45,1,1,1,922,NA,Exp1a,None
1002,5,46,0,1,1,634,NA,Exp1a,None
1002,5,47,0,0,1,770,NA,Exp1a,None
1002,5,48,2,1,1,738,NA,Exp1a,None
1002,5,49,2,0,1,739,NA,Exp1a,None
1002,5,50,2,1,1,803,NA,Exp1a,None
1002,5,51,0,1,1,627,NA,Exp1a,None
1002,5,52,1,0,1,827,NA,Exp1a,None
1002,5,53,2,1,0,835,NA,Exp1a,None
1002,5,54,1,1,1,699,NA,Exp1a,None
1002,5,55,2,0,0,612,NA,Exp1a,None
1002,5,56,0,0,0,740,NA,Exp1a,None
1002,5,59,0,0,1,691,NA,Exp1a,None
1002,5,60,1,0,1,707,NA,Exp1a,None
1002,6,1,1,1,0,868,NA,Exp1a,None
1002,6,2,0,1,1,541,NA,Exp1a,None
1002,6,3,1,0,1,757,NA,Exp1a,None
1002,6,4,2,0,1,757,NA,Exp1a,None
1002,6,5,1,1,1,757,NA,Exp1a,None
1002,6,6,2,0,0,925,NA,Exp1a,None
1002,6,7,0,0,1,805,NA,Exp1a,None
1002,6,8,0,0,1,773,NA,Exp1a,None
1002,6,9,1,0,1,870,NA,Exp1a,None
1002,6,10,0,1,1,670,NA,Exp1a,None
1002,6,11,2,1,1,790,NA,Exp1a,None
1002,6,12,2,1,1,614,NA,Exp1a,None
1002,6,13,1,1,0,718,NA,Exp1a,None
1002,6,14,0,1,1,534,NA,Exp1a,None
1002,6,15,0,1,1,790,NA,Exp1a,None
1002,6,16,0,0,1,983,NA,Exp1a,None
1002,6,17,1,0,1,719,NA,Exp1a,None
1002,6,18,2,0,1,767,NA,Exp1a,None
1002,6,19,2,0,0,911,NA,Exp1a,None
1002,6,20,0,0,1,847,NA,Exp1a,None
1002,6,21,2,1,1,622,NA,Exp1a,None
1002,6,22,1,0,1,735,NA,Exp1a,None
1002,6,23,1,1,1,727,NA,Exp1a,None
1002,6,24,2,1,0,935,NA,Exp1a,None
1002,6,25,2,1,1,655,NA,Exp1a,None
1002,6,26,0,0,1,823,NA,Exp1a,None
1002,6,27,2,0,1,711,NA,Exp1a,None
1002,6,28,1,0,1,983,NA,Exp1a,None
1002,6,29,2,1,1,688,NA,Exp1a,None
1002,6,30,1,1,0,720,NA,Exp1a,None
1002,6,31,0,1,1,552,NA,Exp1a,None
1002,6,32,0,0,1,688,NA,Exp1a,None
1002,6,33,0,1,1,656,NA,Exp1a,None
1002,6,34,1,0,1,800,NA,Exp1a,None
1002,6,35,2,0,1,704,NA,Exp1a,None
1002,6,36,1,1,1,673,NA,Exp1a,None
1002,6,37,2,1,1,729,NA,Exp1a,None
1002,6,38,2,0,1,625,NA,Exp1a,None
1002,6,39,2,1,1,665,NA,Exp1a,None
1002,6,40,0,0,1,729,NA,Exp1a,None
1002,6,41,0,1,1,601,NA,Exp1a,None
1002,6,42,1,1,1,810,NA,Exp1a,None
1002,6,43,1,1,1,634,NA,Exp1a,None
1002,6,44,0,1,1,586,NA,Exp1a,None
1002,6,45,1,0,1,770,NA,Exp1a,None
1002,6,46,1,0,0,690,NA,Exp1a,None
1002,6,49,0,0,0,947,NA,Exp1a,None
1002,6,50,2,1,0,947,NA,Exp1a,None
1002,6,51,2,0,0,778,NA,Exp1a,None
1002,6,52,1,0,1,890,NA,Exp1a,None
1002,6,53,0,0,0,994,NA,Exp1a,None
1002,6,54,2,0,1,1090,NA,Exp1a,None
1002,6,55,2,1,1,867,NA,Exp1a,None
1002,6,56,1,0,1,700,NA,Exp1a,None
1002,6,57,1,1,0,781,NA,Exp1a,None
1002,6,58,0,1,1,717,NA,Exp1a,None
1002,6,59,1,1,1,877,NA,Exp1a,None
1002,6,60,0,1,1,813,NA,Exp1a,None
1003,1,2,2,0,1,765,NA,Exp1a,None
1003,1,3,1,1,1,573,NA,Exp1a,None
1003,1,4,1,0,0,581,NA,Exp1a,None
1003,1,5,0,1,1,838,NA,Exp1a,None
1003,1,6,1,0,1,838,NA,Exp1a,None
1003,1,7,0,0,0,718,NA,Exp1a,None
1003,1,8,2,1,1,998,NA,Exp1a,None
1003,1,9,1,1,1,822,NA,Exp1a,None
1003,1,10,2,0,0,806,NA,Exp1a,None
1003,1,12,0,1,0,975,NA,Exp1a,None
1003,1,13,1,0,1,799,NA,Exp1a,None
1003,1,15,0,1,1,727,NA,Exp1a,None
1003,1,16,1,1,1,903,NA,Exp1a,None
1003,1,17,0,0,1,1055,NA,Exp1a,None
1003,1,19,0,1,1,616,NA,Exp1a,None
1003,1,20,1,0,1,664,NA,Exp1a,None
1003,1,21,2,1,1,648,NA,Exp1a,None
1003,1,22,1,1,1,736,NA,Exp1a,None
1003,1,23,0,0,1,775,NA,Exp1a,None
1003,1,24,2,0,1,919,NA,Exp1a,None
1003,1,25,0,1,1,568,NA,Exp1a,None
1003,1,27,0,0,1,880,NA,Exp1a,None
1003,1,28,1,1,1,536,NA,Exp1a,None
1003,1,29,1,0,0,608,NA,Exp1a,None
1003,1,31,0,1,1,640,NA,Exp1a,None
1003,1,32,1,1,1,713,NA,Exp1a,None
1003,1,33,2,1,1,593,NA,Exp1a,None
1003,1,34,0,0,0,513,NA,Exp1a,None
1003,1,35,2,0,1,641,NA,Exp1a,None
1003,1,36,1,0,0,673,NA,Exp1a,None
1003,1,37,0,0,0,737,NA,Exp1a,None
1003,1,38,1,0,1,1017,NA,Exp1a,None
1003,1,39,1,0,1,722,NA,Exp1a,None
1003,1,40,0,1,1,586,NA,Exp1a,None
1003,1,41,0,0,1,842,NA,Exp1a,None
1003,1,42,1,1,1,826,NA,Exp1a,None
1003,1,43,0,1,1,634,NA,Exp1a,None
1003,1,44,2,1,1,986,NA,Exp1a,None
1003,1,45,2,0,1,842,NA,Exp1a,None
1003,1,46,1,1,1,859,NA,Exp1a,None
1003,1,47,2,1,1,707,NA,Exp1a,None
1003,1,48,2,0,1,651,NA,Exp1a,None
1003,1,49,1,1,1,619,NA,Exp1a,None
1003,1,50,2,0,1,1019,NA,Exp1a,None
1003,1,51,0,0,0,555,NA,Exp1a,None
1003,1,52,1,0,1,851,NA,Exp1a,None
1003,1,53,0,1,1,571,NA,Exp1a,None
1003,1,54,1,0,0,1091,NA,Exp1a,None
1003,1,55,2,1,1,931,NA,Exp1a,None
1003,1,56,2,1,1,659,NA,Exp1a,None
1003,1,57,1,1,1,619,NA,Exp1a,None
1003,1,58,0,0,1,579,NA,Exp1a,None
1003,1,59,2,0,0,843,NA,Exp1a,None
1003,1,60,0,1,1,548,NA,Exp1a,None
1003,2,1,2,0,1,973,NA,Exp1a,None
1003,2,2,1,0,0,869,NA,Exp1a,None
1003,2,3,1,1,1,661,NA,Exp1a,None
1003,2,4,2,1,1,701,NA,Exp1a,None
1003,2,5,2,0,1,637,NA,Exp1a,None
1003,2,6,0,1,1,429,NA,Exp1a,None
1003,2,7,0,0,1,694,NA,Exp1a,None
1003,2,8,0,0,1,958,NA,Exp1a,None
1003,2,9,0,1,1,590,NA,Exp1a,None
1003,2,10,2,1,1,582,NA,Exp1a,None
1003,2,11,1,0,1,526,NA,Exp1a,None
1003,2,12,1,1,1,526,NA,Exp1a,None
1003,2,13,2,0,1,710,NA,Exp1a,None
1003,2,14,2,0,1,815,NA,Exp1a,None
1003,2,15,1,1,1,639,NA,Exp1a,None
1003,2,16,1,0,1,719,NA,Exp1a,None
1003,2,17,0,1,1,430,NA,Exp1a,None
1003,2,18,0,0,1,734,NA,Exp1a,None
1003,2,19,1,0,0,550,NA,Exp1a,None
1003,2,20,0,0,1,582,NA,Exp1a,None
1003,2,21,1,1,1,735,NA,Exp1a,None
1003,2,22,2,1,0,631,NA,Exp1a,None
1003,2,23,0,1,1,463,NA,Exp1a,None
1003,2,24,2,1,0,463,NA,Exp1a,None
1003,2,25,2,0,0,399,NA,Exp1a,None
1003,2,26,0,0,1,543,NA,Exp1a,None
1003,2,27,1,1,1,584,NA,Exp1a,None
1003,2,28,2,0,1,544,NA,Exp1a,None
1003,2,29,0,0,1,568,NA,Exp1a,None
1003,2,30,1,0,1,968,NA,Exp1a,None
1003,2,31,0,1,1,536,NA,Exp1a,None
1003,2,32,1,1,1,800,NA,Exp1a,None
1003,2,33,2,1,0,544,NA,Exp1a,None
1003,2,34,2,1,1,1057,NA,Exp1a,None
1003,2,35,0,1,1,697,NA,Exp1a,None
1003,2,36,1,0,1,577,NA,Exp1a,None
1003,2,37,1,1,0,553,NA,Exp1a,None
1003,2,38,0,0,1,1081,NA,Exp1a,None
1003,2,39,2,1,1,745,NA,Exp1a,None
1003,2,40,1,0,1,657,NA,Exp1a,None
1003,2,41,2,0,1,770,NA,Exp1a,None
1003,2,42,1,0,0,954,NA,Exp1a,None
1003,2,45,0,1,1,506,NA,Exp1a,None
1003,2,46,0,0,1,666,NA,Exp1a,None
1003,2,47,0,1,1,577,NA,Exp1a,None
1003,2,48,1,1,0,506,NA,Exp1a,None
1003,2,49,1,0,1,642,NA,Exp1a,None
1003,2,50,0,0,0,418,NA,Exp1a,None
1003,2,51,0,1,1,834,NA,Exp1a,None
1003,2,52,1,1,1,882,NA,Exp1a,None
1003,2,53,2,1,0,610,NA,Exp1a,None
1003,2,54,1,1,1,634,NA,Exp1a,None
1003,2,55,0,1,1,347,NA,Exp1a,None
1003,2,56,2,0,0,899,NA,Exp1a,None
1003,2,57,2,1,1,491,NA,Exp1a,None
1003,2,58,2,0,1,675,NA,Exp1a,None
1003,2,59,1,0,1,835,NA,Exp1a,None
1003,2,60,0,0,1,1003,NA,Exp1a,None
1003,3,1,0,1,1,510,NA,Exp1a,None
1003,3,2,2,0,1,615,NA,Exp1a,None
1003,3,4,0,0,0,559,NA,Exp1a,None
1003,3,5,0,0,1,487,NA,Exp1a,None
1003,3,6,1,1,1,815,NA,Exp1a,None
1003,3,7,1,1,1,447,NA,Exp1a,None
1003,3,8,2,1,0,615,NA,Exp1a,None
1003,3,9,0,1,1,480,NA,Exp1a,None
1003,3,10,2,1,1,543,NA,Exp1a,None
1003,3,11,1,0,1,623,NA,Exp1a,None
1003,3,12,1,0,0,375,NA,Exp1a,None
1003,3,13,1,0,1,767,NA,Exp1a,None
1003,3,14,1,0,0,503,NA,Exp1a,None
1003,3,15,1,1,0,560,NA,Exp1a,None
1003,3,16,2,1,1,504,NA,Exp1a,None
1003,3,17,2,0,0,360,NA,Exp1a,None
1003,3,18,2,0,1,1008,NA,Exp1a,None
1003,3,19,0,1,1,600,NA,Exp1a,None
1003,3,20,0,0,1,608,NA,Exp1a,None
1003,3,21,1,1,1,640,NA,Exp1a,None
1003,3,22,0,0,0,865,NA,Exp1a,None
1003,3,23,2,1,1,505,NA,Exp1a,None
1003,3,24,0,1,1,465,NA,Exp1a,None
1003,3,25,2,0,1,905,NA,Exp1a,None
1003,3,26,1,1,1,697,NA,Exp1a,None
1003,3,27,0,1,1,569,NA,Exp1a,None
1003,3,28,2,0,1,609,NA,Exp1a,None
1003,3,29,1,1,1,594,NA,Exp1a,None
1003,3,30,2,1,1,762,NA,Exp1a,None
1003,3,31,2,1,1,754,NA,Exp1a,None
1003,3,32,0,1,1,674,NA,Exp1a,None
1003,3,33,1,0,1,834,NA,Exp1a,None
1003,3,34,0,0,0,658,NA,Exp1a,None
1003,3,35,1,0,0,618,NA,Exp1a,None
1003,3,36,0,0,1,1003,NA,Exp1a,None
1003,3,37,2,1,1,587,NA,Exp1a,None
1003,3,38,1,1,1,611,NA,Exp1a,None
1003,3,39,0,0,1,714,NA,Exp1a,None
1003,3,40,2,0,1,994,NA,Exp1a,None
1003,3,41,1,0,1,842,NA,Exp1a,None
1003,3,42,0,1,1,539,NA,Exp1a,None
1003,3,43,1,0,1,652,NA,Exp1a,None
1003,3,44,2,1,1,653,NA,Exp1a,None
1003,3,45,0,0,1,717,NA,Exp1a,None
1003,3,46,1,1,1,613,NA,Exp1a,None
1003,3,47,0,1,1,517,NA,Exp1a,None
1003,3,48,2,0,1,621,NA,Exp1a,None
1003,3,49,1,0,1,558,NA,Exp1a,None
1003,3,50,0,0,1,774,NA,Exp1a,None
1003,3,51,1,0,1,718,NA,Exp1a,None
1003,3,52,1,1,1,694,NA,Exp1a,None
1003,3,53,0,1,1,518,NA,Exp1a,None
1003,3,54,2,1,1,534,NA,Exp1a,None
1003,3,55,2,0,1,710,NA,Exp1a,None
1003,3,56,0,1,1,503,NA,Exp1a,None
1003,3,57,0,0,1,567,NA,Exp1a,None
1003,3,58,1,1,1,543,NA,Exp1a,None
1003,3,59,2,1,1,735,NA,Exp1a,None
1003,3,60,2,0,1,599,NA,Exp1a,None
1003,4,1,1,0,1,984,NA,Exp1a,None
1003,4,2,0,1,1,456,NA,Exp1a,None
1003,4,3,2,1,1,936,NA,Exp1a,None
1003,4,4,2,1,1,504,NA,Exp1a,None
1003,4,5,1,1,1,624,NA,Exp1a,None
1003,4,6,0,1,1,440,NA,Exp1a,None
1003,4,7,1,1,1,528,NA,Exp1a,None
1003,4,8,1,0,1,672,NA,Exp1a,None
1003,4,9,2,0,0,584,NA,Exp1a,None
1003,4,10,2,0,1,801,NA,Exp1a,None
1003,4,11,0,0,1,865,NA,Exp1a,None
1003,4,12,0,0,1,625,NA,Exp1a,None
1003,4,13,2,0,1,609,NA,Exp1a,None
1003,4,14,1,0,1,553,NA,Exp1a,None
1003,4,15,1,1,1,785,NA,Exp1a,None
1003,4,16,0,0,1,802,NA,Exp1a,None
1003,4,17,0,1,1,674,NA,Exp1a,None
1003,4,18,2,0,1,554,NA,Exp1a,None
1003,4,19,0,1,1,642,NA,Exp1a,None
1003,4,20,2,1,0,818,NA,Exp1a,None
1003,4,21,2,1,1,554,NA,Exp1a,None
1003,4,22,0,0,1,770,NA,Exp1a,None
1003,4,23,1,0,1,755,NA,Exp1a,None
1003,4,24,1,1,1,1043,NA,Exp1a,None
1003,4,25,1,0,1,651,NA,Exp1a,None
1003,4,26,0,1,1,507,NA,Exp1a,None
1003,4,27,2,1,1,755,NA,Exp1a,None
1003,4,28,0,1,1,595,NA,Exp1a,None
1003,4,29,2,1,1,635,NA,Exp1a,None
1003,4,30,2,0,1,540,NA,Exp1a,None
1003,4,31,1,0,0,652,NA,Exp1a,None
1003,4,32,0,0,1,796,NA,Exp1a,None
1003,4,33,1,1,1,795,NA,Exp1a,None
1003,4,34,0,0,1,715,NA,Exp1a,None
1003,4,35,1,1,1,659,NA,Exp1a,None
1003,4,36,2,0,1,644,NA,Exp1a,None
1003,4,37,1,0,0,684,NA,Exp1a,None
1003,4,38,2,1,1,628,NA,Exp1a,None
1003,4,39,2,0,1,564,NA,Exp1a,None
1003,4,40,2,1,1,660,NA,Exp1a,None
1003,4,41,0,1,1,548,NA,Exp1a,None
1003,4,42,0,0,1,676,NA,Exp1a,None
1003,4,43,0,1,0,709,NA,Exp1a,None
1003,4,44,1,1,1,485,NA,Exp1a,None
1003,4,45,1,0,0,541,NA,Exp1a,None
1003,4,46,2,0,1,1093,NA,Exp1a,None
1003,4,47,1,1,1,533,NA,Exp1a,None
1003,4,48,0,0,0,485,NA,Exp1a,None
1003,4,49,2,0,1,605,NA,Exp1a,None
1003,4,50,0,1,1,662,NA,Exp1a,None
1003,4,51,1,0,1,582,NA,Exp1a,None
1003,4,52,1,1,1,686,NA,Exp1a,None
1003,4,53,1,0,1,838,NA,Exp1a,None
1003,4,54,2,1,1,766,NA,Exp1a,None
1003,4,55,0,0,1,846,NA,Exp1a,None
1003,4,56,0,1,1,919,NA,Exp1a,None
1003,4,57,0,0,1,752,NA,Exp1a,None
1003,4,58,2,0,1,713,NA,Exp1a,None
1003,4,59,2,1,0,585,NA,Exp1a,None
1003,4,60,1,1,1,569,NA,Exp1a,None
1003,5,1,1,1,1,1001,NA,Exp1a,None
1003,5,2,2,1,1,721,NA,Exp1a,None
1003,5,3,0,1,1,457,NA,Exp1a,None
1003,5,4,0,0,1,626,NA,Exp1a,None
1003,5,5,1,0,1,762,NA,Exp1a,None
1003,5,6,2,1,1,890,NA,Exp1a,None
1003,5,7,0,0,1,674,NA,Exp1a,None
1003,5,8,1,0,1,898,NA,Exp1a,None
1003,5,9,2,0,1,674,NA,Exp1a,None
1003,5,10,2,0,0,771,NA,Exp1a,None
1003,5,11,0,1,1,691,NA,Exp1a,None
1003,5,12,1,1,1,675,NA,Exp1a,None
1003,5,13,0,1,1,651,NA,Exp1a,None
1003,5,14,1,0,1,1051,NA,Exp1a,None
1003,5,15,1,0,1,739,NA,Exp1a,None
1003,5,16,0,0,1,779,NA,Exp1a,None
1003,5,17,2,1,1,980,NA,Exp1a,None
1003,5,18,0,0,0,668,NA,Exp1a,None
1003,5,19,2,0,1,1012,NA,Exp1a,None
1003,5,20,2,0,1,948,NA,Exp1a,None
1003,5,21,1,1,1,708,NA,Exp1a,None
1003,5,22,0,1,1,636,NA,Exp1a,None
1003,5,23,2,1,1,724,NA,Exp1a,None
1003,5,24,1,1,1,653,NA,Exp1a,None
1003,5,25,1,1,1,565,NA,Exp1a,None
1003,5,26,1,0,1,589,NA,Exp1a,None
1003,5,27,0,0,1,748,NA,Exp1a,None
1003,5,28,0,1,1,628,NA,Exp1a,None
1003,5,29,1,1,0,660,NA,Exp1a,None
1003,5,30,0,0,1,1037,NA,Exp1a,None
1003,5,31,2,0,1,709,NA,Exp1a,None
1003,5,32,1,0,1,749,NA,Exp1a,None
1003,5,33,2,0,1,861,NA,Exp1a,None
1003,5,34,0,1,1,613,NA,Exp1a,None
1003,5,35,2,1,1,773,NA,Exp1a,None
1003,5,36,2,1,1,533,NA,Exp1a,None
1003,5,37,0,1,1,622,NA,Exp1a,None
1003,5,38,1,0,1,590,NA,Exp1a,None
1003,5,39,2,1,1,718,NA,Exp1a,None
1003,5,40,1,1,1,638,NA,Exp1a,None
1003,5,41,0,0,1,686,NA,Exp1a,None
1003,5,42,1,0,1,886,NA,Exp1a,None
1003,5,43,2,1,1,574,NA,Exp1a,None
1003,5,44,0,0,1,647,NA,Exp1a,None
1003,5,45,2,0,1,903,NA,Exp1a,None
1003,5,46,1,1,1,735,NA,Exp1a,None
1003,5,47,2,0,1,591,NA,Exp1a,None
1003,5,48,0,1,1,551,NA,Exp1a,None
1003,5,49,1,0,1,1079,NA,Exp1a,None
1003,5,51,1,0,1,1056,NA,Exp1a,None
1003,5,52,0,1,1,632,NA,Exp1a,None
1003,5,53,2,1,1,736,NA,Exp1a,None
1003,5,54,2,1,1,552,NA,Exp1a,None
1003,5,55,0,0,1,703,NA,Exp1a,None
1003,5,56,1,1,1,815,NA,Exp1a,None
1003,5,57,2,0,1,744,NA,Exp1a,None
1003,5,58,2,0,1,1048,NA,Exp1a,None
1003,5,59,0,1,1,632,NA,Exp1a,None
1003,5,60,0,0,1,936,NA,Exp1a,None
1003,6,1,1,0,1,787,NA,Exp1a,None
1003,6,2,1,0,1,627,NA,Exp1a,None
1003,6,3,2,1,1,619,NA,Exp1a,None
1003,6,4,0,0,1,676,NA,Exp1a,None
1003,6,5,2,0,1,852,NA,Exp1a,None
1003,6,6,1,1,1,516,NA,Exp1a,None
1003,6,7,1,1,1,444,NA,Exp1a,None
1003,6,8,0,1,1,548,NA,Exp1a,None
1003,6,9,0,0,1,532,NA,Exp1a,None
1003,6,10,2,0,1,636,NA,Exp1a,None
1003,6,11,2,1,1,637,NA,Exp1a,None
1003,6,12,0,1,1,565,NA,Exp1a,None
1003,6,13,0,0,1,781,NA,Exp1a,None
1003,6,14,1,1,1,717,NA,Exp1a,None
1003,6,15,1,1,1,933,NA,Exp1a,None
1003,6,16,2,1,0,613,NA,Exp1a,None
1003,6,17,1,0,1,982,NA,Exp1a,None
1003,6,18,2,0,1,798,NA,Exp1a,None
1003,6,19,0,0,1,629,NA,Exp1a,None
1003,6,20,0,1,1,781,NA,Exp1a,None
1003,6,21,2,0,1,653,NA,Exp1a,None
1003,6,22,1,0,1,725,NA,Exp1a,None
1003,6,23,2,1,1,597,NA,Exp1a,None
1003,6,24,0,1,1,590,NA,Exp1a,None
1003,6,25,1,0,1,566,NA,Exp1a,None
1003,6,26,1,1,1,590,NA,Exp1a,None
1003,6,27,1,0,1,654,NA,Exp1a,None
1003,6,28,0,1,1,518,NA,Exp1a,None
1003,6,29,1,1,1,686,NA,Exp1a,None
1003,6,30,2,0,1,694,NA,Exp1a,None
1003,6,31,0,0,0,511,NA,Exp1a,None
1003,6,32,0,0,1,759,NA,Exp1a,None
1003,6,33,2,1,1,655,NA,Exp1a,None
1003,6,35,2,1,0,839,NA,Exp1a,None
1003,6,36,0,1,1,679,NA,Exp1a,None
1003,6,37,2,1,1,704,NA,Exp1a,None
1003,6,38,0,0,1,681,NA,Exp1a,None
1003,6,39,1,1,1,802,NA,Exp1a,None
1003,6,40,2,0,1,666,NA,Exp1a,None
1003,6,41,0,0,1,706,NA,Exp1a,None
1003,6,42,2,0,1,722,NA,Exp1a,None
1003,6,43,1,0,1,786,NA,Exp1a,None
1003,6,44,0,1,1,467,NA,Exp1a,None
1003,6,45,2,1,1,811,NA,Exp1a,None
1003,6,46,1,0,1,579,NA,Exp1a,None
1003,6,47,1,1,1,827,NA,Exp1a,None
1003,6,48,0,1,1,603,NA,Exp1a,None
1003,6,49,2,1,1,762,NA,Exp1a,None
1003,6,50,2,1,1,499,NA,Exp1a,None
1003,6,51,1,1,0,683,NA,Exp1a,None
1003,6,52,1,0,1,1043,NA,Exp1a,None
1003,6,53,0,0,0,523,NA,Exp1a,None
1003,6,54,1,1,1,955,NA,Exp1a,None
1003,6,55,1,0,1,675,NA,Exp1a,None
1003,6,56,2,0,1,771,NA,Exp1a,None
1003,6,57,0,1,1,580,NA,Exp1a,None
1003,6,58,2,0,0,756,NA,Exp1a,None
1003,6,60,0,1,1,628,NA,Exp1a,None
1004,1,1,1,0,0,489,NA,Exp1a,None
1004,1,2,0,0,0,1061,NA,Exp1a,None
1004,1,4,0,1,0,723,NA,Exp1a,None
1004,1,5,0,1,0,735,NA,Exp1a,None
1004,1,6,2,0,0,450,NA,Exp1a,None
1004,1,7,1,1,1,734,NA,Exp1a,None
1004,1,8,2,1,0,897,NA,Exp1a,None
1004,1,9,1,1,1,1069,NA,Exp1a,None
1004,1,10,0,0,0,624,NA,Exp1a,None
1004,1,11,2,0,1,963,NA,Exp1a,None
1004,1,12,1,0,0,799,NA,Exp1a,None
1004,1,13,0,0,0,930,NA,Exp1a,None
1004,1,14,0,1,0,742,NA,Exp1a,None
1004,1,15,2,1,1,785,NA,Exp1a,None
1004,1,16,1,1,1,931,NA,Exp1a,None
1004,1,17,1,1,1,615,NA,Exp1a,None
1004,1,18,1,0,0,506,NA,Exp1a,None
1004,1,19,2,0,0,774,NA,Exp1a,None
1004,1,20,2,1,0,785,NA,Exp1a,None
1004,1,21,0,1,0,709,NA,Exp1a,None
1004,1,22,1,0,0,688,NA,Exp1a,None
1004,1,23,2,0,0,635,NA,Exp1a,None
1004,1,25,0,0,1,1058,NA,Exp1a,None
1004,1,26,2,1,1,854,NA,Exp1a,None
1004,1,27,1,1,1,881,NA,Exp1a,None
1004,1,28,1,0,1,901,NA,Exp1a,None
1004,1,29,0,0,0,704,NA,Exp1a,None
1004,1,30,2,0,1,1051,NA,Exp1a,None
1004,1,31,1,0,0,967,NA,Exp1a,None
1004,1,33,2,0,0,558,NA,Exp1a,None
1004,1,34,1,1,1,673,NA,Exp1a,None
1004,1,35,0,1,0,765,NA,Exp1a,None
1004,1,36,0,1,1,864,NA,Exp1a,None
1004,1,37,1,0,1,826,NA,Exp1a,None
1004,1,38,1,0,0,646,NA,Exp1a,None
1004,1,39,1,1,1,841,NA,Exp1a,None
1004,1,40,0,1,1,733,NA,Exp1a,None
1004,1,41,0,0,1,744,NA,Exp1a,None
1004,1,42,2,0,0,579,NA,Exp1a,None
1004,1,45,2,1,1,566,NA,Exp1a,None
1004,1,46,2,0,1,817,NA,Exp1a,None
1004,1,47,2,1,1,901,NA,Exp1a,None
1004,1,48,0,1,0,928,NA,Exp1a,None
1004,1,49,0,1,1,531,NA,Exp1a,None
1004,1,50,2,0,1,791,NA,Exp1a,None
1004,1,51,1,1,1,786,NA,Exp1a,None
1004,1,52,1,1,1,846,NA,Exp1a,None
1004,1,53,2,0,0,929,NA,Exp1a,None
1004,1,54,2,1,0,997,NA,Exp1a,None
1004,1,55,0,1,1,1080,NA,Exp1a,None
1004,1,56,0,0,1,771,NA,Exp1a,None
1004,1,57,0,0,1,998,NA,Exp1a,None
1004,1,58,2,1,1,905,NA,Exp1a,None
1004,1,59,1,0,1,933,NA,Exp1a,None
1004,1,60,1,0,1,920,NA,Exp1a,None
1004,2,2,2,1,1,806,NA,Exp1a,None
1004,2,3,1,1,1,634,NA,Exp1a,None
1004,2,4,1,0,1,805,NA,Exp1a,None
1004,2,5,2,0,0,601,NA,Exp1a,None
1004,2,6,0,1,1,524,NA,Exp1a,None
1004,2,7,1,0,1,799,NA,Exp1a,None
1004,2,8,2,0,1,859,NA,Exp1a,None
1004,2,9,0,1,1,830,NA,Exp1a,None
1004,2,10,1,1,1,714,NA,Exp1a,None
1004,2,11,0,0,1,845,NA,Exp1a,None
1004,2,12,2,1,1,663,NA,Exp1a,None
1004,2,13,1,0,1,707,NA,Exp1a,None
1004,2,16,1,0,0,357,NA,Exp1a,None
1004,2,17,1,1,1,801,NA,Exp1a,None
1004,2,18,2,1,0,836,NA,Exp1a,None
1004,2,19,2,0,0,727,NA,Exp1a,None
1004,2,20,1,1,1,627,NA,Exp1a,None
1004,2,21,0,1,1,982,NA,Exp1a,None
1004,2,22,0,0,1,690,NA,Exp1a,None
1004,2,23,2,0,0,957,NA,Exp1a,None
1004,2,24,0,1,1,1009,NA,Exp1a,None
1004,2,25,1,1,1,852,NA,Exp1a,None
1004,2,26,1,0,1,935,NA,Exp1a,None
1004,2,29,0,0,0,882,NA,Exp1a,None
1004,2,32,0,1,0,588,NA,Exp1a,None
1004,2,33,2,1,0,758,NA,Exp1a,None
1004,2,34,2,0,1,530,NA,Exp1a,None
1004,2,35,0,1,1,653,NA,Exp1a,None
1004,2,36,2,1,0,721,NA,Exp1a,None
1004,2,37,1,1,1,612,NA,Exp1a,None
1004,2,38,1,0,1,767,NA,Exp1a,None
1004,2,39,2,0,0,675,NA,Exp1a,None
1004,2,40,1,1,1,702,NA,Exp1a,None
1004,2,41,0,1,1,770,NA,Exp1a,None
1004,2,42,1,0,1,829,NA,Exp1a,None
1004,2,43,2,0,0,825,NA,Exp1a,None
1004,2,44,0,0,1,1052,NA,Exp1a,None
1004,2,48,2,1,0,490,NA,Exp1a,None
1004,2,49,2,1,1,869,NA,Exp1a,None
1004,2,50,2,1,1,417,NA,Exp1a,None
1004,2,51,0,0,1,628,NA,Exp1a,None
1004,2,52,1,0,1,927,NA,Exp1a,None
1004,2,53,0,1,1,578,NA,Exp1a,None
1004,2,54,1,1,1,677,NA,Exp1a,None
1004,2,55,2,0,1,937,NA,Exp1a,None
1004,2,56,1,1,1,612,NA,Exp1a,None
1004,2,57,0,1,1,976,NA,Exp1a,None
1004,2,58,1,0,1,715,NA,Exp1a,None
1004,2,59,0,0,0,1014,NA,Exp1a,None
1004,3,1,0,1,1,543,NA,Exp1a,None
1004,3,2,0,1,1,467,NA,Exp1a,None
1004,3,3,2,1,0,598,NA,Exp1a,None
1004,3,4,0,0,0,913,NA,Exp1a,None
1004,3,5,1,1,1,605,NA,Exp1a,None
1004,3,6,2,1,1,648,NA,Exp1a,None
1004,3,7,1,0,1,739,NA,Exp1a,None
1004,3,8,2,0,0,718,NA,Exp1a,None
1004,3,9,1,0,1,826,NA,Exp1a,None
1004,3,10,0,0,1,893,NA,Exp1a,None
1004,3,11,2,0,1,856,NA,Exp1a,None
1004,3,12,1,1,1,604,NA,Exp1a,None
1004,3,13,1,0,1,791,NA,Exp1a,None
1004,3,14,2,1,1,851,NA,Exp1a,None
1004,3,15,2,0,1,814,NA,Exp1a,None
1004,3,16,1,1,1,842,NA,Exp1a,None
1004,3,17,0,0,1,1037,NA,Exp1a,None
1004,3,18,1,0,0,704,NA,Exp1a,None
1004,3,19,0,0,1,916,NA,Exp1a,None
1004,3,20,2,0,1,879,NA,Exp1a,None
1004,3,21,0,1,1,755,NA,Exp1a,None
1004,3,22,0,1,1,606,NA,Exp1a,None
1004,3,23,2,1,0,881,NA,Exp1a,None
1004,3,24,1,1,1,717,NA,Exp1a,None
1004,3,27,1,1,1,463,NA,Exp1a,None
1004,3,28,1,0,1,803,NA,Exp1a,None
1004,3,29,2,0,1,1037,NA,Exp1a,None
1004,3,30,2,1,1,712,NA,Exp1a,None
1004,3,31,1,1,1,972,NA,Exp1a,None
1004,3,32,0,1,1,807,NA,Exp1a,None
1004,3,33,0,0,1,843,NA,Exp1a,None
1004,3,34,0,0,0,902,NA,Exp1a,None
1004,3,35,0,1,1,722,NA,Exp1a,None
1004,3,36,2,0,1,933,NA,Exp1a,None
1004,3,39,1,1,1,527,NA,Exp1a,None
1004,3,40,0,1,1,659,NA,Exp1a,None
1004,3,41,1,0,1,654,NA,Exp1a,None
1004,3,42,2,0,1,1082,NA,Exp1a,None
1004,3,43,2,1,1,573,NA,Exp1a,None
1004,3,44,1,1,1,680,NA,Exp1a,None
1004,3,46,0,0,0,415,NA,Exp1a,None
1004,3,47,0,0,0,379,NA,Exp1a,None
1004,3,48,0,1,1,862,NA,Exp1a,None
1004,3,49,1,0,1,856,NA,Exp1a,None
1004,3,50,1,1,1,940,NA,Exp1a,None
1004,3,51,2,1,1,743,NA,Exp1a,None
1004,3,56,2,0,0,304,NA,Exp1a,None
1004,3,57,0,0,1,908,NA,Exp1a,None
1004,3,59,2,1,1,547,NA,Exp1a,None
1004,3,60,1,0,0,510,NA,Exp1a,None
1004,4,1,2,0,1,651,NA,Exp1a,None
1004,4,2,0,0,1,855,NA,Exp1a,None
1004,4,3,1,0,1,777,NA,Exp1a,None
1004,4,4,1,1,1,573,NA,Exp1a,None
1004,4,5,1,1,0,872,NA,Exp1a,None
1004,4,6,2,1,1,692,NA,Exp1a,None
1004,4,7,1,0,1,727,NA,Exp1a,None
1004,4,8,2,0,0,682,NA,Exp1a,None
1004,4,9,0,0,1,774,NA,Exp1a,None
1004,4,10,0,1,1,713,NA,Exp1a,None
1004,4,11,0,1,1,501,NA,Exp1a,None
1004,4,12,2,1,0,616,NA,Exp1a,None
1004,4,13,0,0,0,868,NA,Exp1a,None
1004,4,14,0,0,0,487,NA,Exp1a,None
1004,4,15,2,0,1,994,NA,Exp1a,None
1004,4,16,2,1,1,606,NA,Exp1a,None
1004,4,17,0,1,1,889,NA,Exp1a,None
1004,4,18,2,1,1,917,NA,Exp1a,None
1004,4,19,1,0,0,840,NA,Exp1a,None
1004,4,20,1,1,1,636,NA,Exp1a,None
1004,4,21,1,1,1,527,NA,Exp1a,None
1004,4,22,2,0,1,986,NA,Exp1a,None
1004,4,23,0,1,1,590,NA,Exp1a,None
1004,4,24,1,0,1,1064,NA,Exp1a,None
1004,4,25,2,1,1,860,NA,Exp1a,None
1004,4,26,1,0,1,887,NA,Exp1a,None
1004,4,27,0,0,0,682,NA,Exp1a,None
1004,4,28,1,1,1,582,NA,Exp1a,None
1004,4,29,0,1,1,681,NA,Exp1a,None
1004,4,30,2,1,1,949,NA,Exp1a,None
1004,4,31,2,0,1,696,NA,Exp1a,None
1004,4,32,1,0,1,772,NA,Exp1a,None
1004,4,33,0,0,1,831,NA,Exp1a,None
1004,4,34,1,1,1,626,NA,Exp1a,None
1004,4,35,0,1,1,830,NA,Exp1a,None
1004,4,36,2,0,1,801,NA,Exp1a,None
1004,4,37,1,0,0,925,NA,Exp1a,None
1004,4,38,2,0,1,1096,NA,Exp1a,None
1004,4,39,0,1,1,668,NA,Exp1a,None
1004,4,40,0,0,0,1007,NA,Exp1a,None
1004,4,41,1,1,1,514,NA,Exp1a,None
1004,4,42,2,1,1,830,NA,Exp1a,None
1004,4,43,2,1,1,769,NA,Exp1a,None
1004,4,44,0,0,1,621,NA,Exp1a,None
1004,4,45,0,1,1,647,NA,Exp1a,None
1004,4,46,1,1,1,731,NA,Exp1a,None
1004,4,47,1,0,1,750,NA,Exp1a,None
1004,4,48,2,0,0,769,NA,Exp1a,None
1004,4,49,1,0,0,669,NA,Exp1a,None
1004,4,50,1,0,1,896,NA,Exp1a,None
1004,4,51,2,1,1,852,NA,Exp1a,None
1004,4,52,2,1,1,519,NA,Exp1a,None
1004,4,53,0,1,1,826,NA,Exp1a,None
1004,4,54,0,1,1,534,NA,Exp1a,None
1004,4,55,1,1,1,705,NA,Exp1a,None
1004,4,56,0,0,1,573,NA,Exp1a,None
1004,4,57,1,1,1,488,NA,Exp1a,None
1004,4,58,2,0,1,612,NA,Exp1a,None
1004,4,59,2,0,1,879,NA,Exp1a,None
1004,4,60,0,0,0,482,NA,Exp1a,None
1004,5,1,1,1,1,543,NA,Exp1a,None
1004,5,2,0,0,0,730,NA,Exp1a,None
1004,5,3,2,0,1,662,NA,Exp1a,None
1004,5,4,2,1,1,673,NA,Exp1a,None
1004,5,5,1,1,1,645,NA,Exp1a,None
1004,5,6,1,0,1,656,NA,Exp1a,None
1004,5,7,0,1,1,651,NA,Exp1a,None
1004,5,8,0,0,1,655,NA,Exp1a,None
1004,5,9,2,1,1,690,NA,Exp1a,None
1004,5,10,2,0,0,766,NA,Exp1a,None
1004,5,11,0,1,1,473,NA,Exp1a,None
1004,5,12,1,0,0,636,NA,Exp1a,None
1004,5,13,2,1,1,768,NA,Exp1a,None
1004,5,14,0,0,1,579,NA,Exp1a,None
1004,5,15,2,1,1,983,NA,Exp1a,None
1004,5,16,0,1,0,762,NA,Exp1a,None
1004,5,17,1,1,1,462,NA,Exp1a,None
1004,5,19,1,0,0,444,NA,Exp1a,None
1004,5,20,0,1,0,608,NA,Exp1a,None
1004,5,21,1,1,1,602,NA,Exp1a,None
1004,5,23,2,0,0,313,NA,Exp1a,None
1004,5,25,1,1,1,288,NA,Exp1a,None
1004,5,26,1,1,1,403,NA,Exp1a,None
1004,5,27,1,0,1,807,NA,Exp1a,None
1004,5,28,2,1,1,706,NA,Exp1a,None
1004,5,29,2,1,1,470,NA,Exp1a,None
1004,5,30,2,0,0,393,NA,Exp1a,None
1004,5,31,0,1,1,469,NA,Exp1a,None
1004,5,32,2,0,1,640,NA,Exp1a,None
1004,5,33,0,1,1,523,NA,Exp1a,None
1004,5,34,1,0,1,647,NA,Exp1a,None
1004,5,35,0,0,0,746,NA,Exp1a,None
1004,5,36,0,0,1,774,NA,Exp1a,None
1004,5,37,0,0,1,1009,NA,Exp1a,None
1004,5,38,0,0,1,820,NA,Exp1a,None
1004,5,39,1,1,1,624,NA,Exp1a,None
1004,5,40,2,1,1,851,NA,Exp1a,None
1004,5,41,2,1,1,654,NA,Exp1a,None
1004,5,42,2,0,1,729,NA,Exp1a,None
1004,5,43,1,0,0,693,NA,Exp1a,None
1004,5,44,0,1,1,648,NA,Exp1a,None
1004,5,45,2,0,1,907,NA,Exp1a,None
1004,5,46,1,0,1,839,NA,Exp1a,None
1004,5,47,1,1,1,882,NA,Exp1a,None
1004,5,48,0,1,1,774,NA,Exp1a,None
1004,5,49,0,1,1,617,NA,Exp1a,None
1004,5,50,2,1,1,845,NA,Exp1a,None
1004,5,51,0,1,1,728,NA,Exp1a,None
1004,5,52,0,0,1,691,NA,Exp1a,None
1004,5,53,1,1,1,655,NA,Exp1a,None
1004,5,54,1,0,1,810,NA,Exp1a,None
1004,5,55,1,0,0,774,NA,Exp1a,None
1004,5,56,1,1,1,593,NA,Exp1a,None
1004,5,57,2,0,1,813,NA,Exp1a,None
1004,5,58,0,0,0,656,NA,Exp1a,None
1004,5,60,2,0,0,535,NA,Exp1a,None
1004,6,1,0,0,1,715,NA,Exp1a,None
1004,6,2,1,0,1,687,NA,Exp1a,None
1004,6,3,1,1,1,666,NA,Exp1a,None
1004,6,4,0,1,1,733,NA,Exp1a,None
1004,6,5,2,0,1,1017,NA,Exp1a,None
1004,6,6,2,0,0,676,NA,Exp1a,None
1004,6,7,0,1,1,568,NA,Exp1a,None
1004,6,8,2,1,1,1091,NA,Exp1a,None
1004,6,9,1,1,1,623,NA,Exp1a,None
1004,6,10,2,1,1,842,NA,Exp1a,None
1004,6,11,1,0,1,757,NA,Exp1a,None
1004,6,12,0,0,1,873,NA,Exp1a,None
1004,6,13,2,1,1,956,NA,Exp1a,None
1004,6,14,2,1,1,656,NA,Exp1a,None
1004,6,15,1,1,1,731,NA,Exp1a,None
1004,6,16,0,0,1,973,NA,Exp1a,None
1004,6,17,0,1,1,721,NA,Exp1a,None
1004,6,18,1,1,1,764,NA,Exp1a,None
1004,6,19,1,0,1,832,NA,Exp1a,None
1004,6,20,1,0,1,915,NA,Exp1a,None
1004,6,21,2,0,1,839,NA,Exp1a,None
1004,6,22,2,0,1,794,NA,Exp1a,None
1004,6,23,0,0,1,813,NA,Exp1a,None
1004,6,24,0,1,1,753,NA,Exp1a,None
1004,6,25,2,0,1,780,NA,Exp1a,None
1004,6,27,2,1,1,627,NA,Exp1a,None
1004,6,28,2,0,1,839,NA,Exp1a,None
1004,6,29,2,1,1,674,NA,Exp1a,None
1004,6,30,1,0,1,709,NA,Exp1a,None
1004,6,31,0,1,1,609,NA,Exp1a,None
1004,6,33,1,1,1,616,NA,Exp1a,None
1004,6,34,0,0,0,899,NA,Exp1a,None
1004,6,35,1,0,1,695,NA,Exp1a,None
1004,6,36,1,1,1,690,NA,Exp1a,None
1004,6,38,1,1,1,504,NA,Exp1a,None
1004,6,39,0,0,1,699,NA,Exp1a,None
1004,6,40,0,1,1,743,NA,Exp1a,None
1004,6,41,0,1,1,658,NA,Exp1a,None
1004,6,42,1,0,1,677,NA,Exp1a,None
1004,6,43,0,0,1,825,NA,Exp1a,None
1004,6,44,2,1,1,700,NA,Exp1a,None
1004,6,45,2,0,1,840,NA,Exp1a,None
1004,6,46,1,0,1,787,NA,Exp1a,None
1004,6,47,2,1,1,807,NA,Exp1a,None
1004,6,48,1,1,1,850,NA,Exp1a,None
1004,6,49,2,0,1,789,NA,Exp1a,None
1004,6,50,1,1,1,673,NA,Exp1a,None
1004,6,51,1,0,1,780,NA,Exp1a,None
1004,6,52,2,1,1,576,NA,Exp1a,None
1004,6,53,0,0,1,1011,NA,Exp1a,None
1004,6,54,0,1,1,647,NA,Exp1a,None
1004,6,55,1,0,1,674,NA,Exp1a,None
1004,6,56,2,0,1,1069,NA,Exp1a,None
1004,6,57,2,1,1,632,NA,Exp1a,None
1004,6,58,1,1,0,851,NA,Exp1a,None
1004,6,59,0,1,0,1015,NA,Exp1a,None
1004,6,60,0,0,0,818,NA,Exp1a,None
1005,1,1,1,1,0,621,NA,Exp1a,None
1005,1,2,0,0,0,381,NA,Exp1a,None
1005,1,3,2,1,1,789,NA,Exp1a,None
1005,1,4,1,0,1,725,NA,Exp1a,None
1005,1,5,1,1,0,597,NA,Exp1a,None
1005,1,6,1,0,1,861,NA,Exp1a,None
1005,1,7,0,1,1,422,NA,Exp1a,None
1005,1,8,2,0,1,638,NA,Exp1a,None
1005,1,9,2,1,1,678,NA,Exp1a,None
1005,1,10,0,0,1,646,NA,Exp1a,None
1005,1,11,0,1,1,542,NA,Exp1a,None
1005,1,12,2,0,1,542,NA,Exp1a,None
1005,1,13,1,0,1,710,NA,Exp1a,None
1005,1,14,1,0,1,751,NA,Exp1a,None
1005,1,15,2,1,1,727,NA,Exp1a,None
1005,1,16,1,1,0,567,NA,Exp1a,None
1005,1,17,0,0,1,663,NA,Exp1a,None
1005,1,18,0,1,1,439,NA,Exp1a,None
1005,1,19,2,1,1,727,NA,Exp1a,None
1005,1,20,2,0,1,600,NA,Exp1a,None
1005,1,21,0,1,1,632,NA,Exp1a,None
1005,1,22,2,0,1,872,NA,Exp1a,None
1005,1,23,0,0,1,696,NA,Exp1a,None
1005,1,24,1,1,1,832,NA,Exp1a,None
1005,1,25,0,0,1,744,NA,Exp1a,None
1005,1,26,0,1,1,504,NA,Exp1a,None
1005,1,27,1,0,1,833,NA,Exp1a,None
1005,1,28,0,0,1,624,NA,Exp1a,None
1005,1,29,2,1,1,720,NA,Exp1a,None
1005,1,30,2,0,1,784,NA,Exp1a,None
1005,1,31,1,1,1,584,NA,Exp1a,None
1005,1,32,0,1,1,590,NA,Exp1a,None
1005,1,33,2,0,1,782,NA,Exp1a,None
1005,1,34,1,0,1,815,NA,Exp1a,None
1005,1,36,1,1,0,703,NA,Exp1a,None
1005,1,37,2,1,1,831,NA,Exp1a,None
1005,1,38,2,0,1,591,NA,Exp1a,None
1005,1,39,1,0,1,943,NA,Exp1a,None
1005,1,40,2,0,1,760,NA,Exp1a,None
1005,1,41,1,1,1,752,NA,Exp1a,None
1005,1,42,0,0,1,736,NA,Exp1a,None
1005,1,43,1,0,1,1024,NA,Exp1a,None
1005,1,44,0,0,1,776,NA,Exp1a,None
1005,1,45,1,1,1,808,NA,Exp1a,None
1005,1,46,0,1,1,520,NA,Exp1a,None
1005,1,47,0,1,1,857,NA,Exp1a,None
1005,1,48,2,1,1,737,NA,Exp1a,None
1005,1,49,2,0,1,641,NA,Exp1a,None
1005,1,50,1,1,1,809,NA,Exp1a,None
1005,1,51,1,0,1,849,NA,Exp1a,None
1005,1,52,2,1,1,585,NA,Exp1a,None
1005,1,53,0,1,1,554,NA,Exp1a,None
1005,1,54,1,1,1,738,NA,Exp1a,None
1005,1,55,2,1,1,714,NA,Exp1a,None
1005,1,56,0,0,1,602,NA,Exp1a,None
1005,1,57,0,1,1,505,NA,Exp1a,None
1005,1,58,1,0,1,761,NA,Exp1a,None
1005,1,59,0,0,0,481,NA,Exp1a,None
1005,1,60,2,0,1,1002,NA,Exp1a,None
1005,2,1,0,0,1,667,NA,Exp1a,None
1005,2,2,2,1,1,691,NA,Exp1a,None
1005,2,3,1,0,1,651,NA,Exp1a,None
1005,2,4,2,0,1,683,NA,Exp1a,None
1005,2,5,2,0,1,707,NA,Exp1a,None
1005,2,6,1,1,1,651,NA,Exp1a,None
1005,2,7,0,1,1,516,NA,Exp1a,None
1005,2,8,0,0,1,492,NA,Exp1a,None
1005,2,9,2,1,0,884,NA,Exp1a,None
1005,2,10,0,1,1,532,NA,Exp1a,None
1005,2,11,1,1,1,636,NA,Exp1a,None
1005,2,12,1,0,1,532,NA,Exp1a,None
1005,2,13,2,1,1,716,NA,Exp1a,None
1005,2,14,0,0,1,605,NA,Exp1a,None
1005,2,15,1,0,0,685,NA,Exp1a,None
1005,2,16,2,0,1,645,NA,Exp1a,None
1005,2,17,0,0,1,717,NA,Exp1a,None
1005,2,18,0,1,1,493,NA,Exp1a,None
1005,2,19,0,1,1,565,NA,Exp1a,None
1005,2,20,1,1,0,550,NA,Exp1a,None
1005,2,21,2,1,1,710,NA,Exp1a,None
1005,2,22,1,0,0,557,NA,Exp1a,None
1005,2,23,2,0,1,613,NA,Exp1a,None
1005,2,24,1,1,1,685,NA,Exp1a,None
1005,2,25,0,0,1,645,NA,Exp1a,None
1005,2,26,0,0,1,613,NA,Exp1a,None
1005,2,27,2,0,1,710,NA,Exp1a,None
1005,2,28,1,1,1,702,NA,Exp1a,None
1005,2,29,0,1,1,558,NA,Exp1a,None
1005,2,30,0,1,0,646,NA,Exp1a,None
1005,2,31,1,1,1,630,NA,Exp1a,None
1005,2,32,2,1,1,550,NA,Exp1a,None
1005,2,33,1,0,1,678,NA,Exp1a,None
1005,2,34,2,0,1,743,NA,Exp1a,None
1005,2,35,1,0,1,831,NA,Exp1a,None
1005,2,36,2,1,1,767,NA,Exp1a,None
1005,2,37,2,0,1,663,NA,Exp1a,None
1005,2,38,0,1,1,511,NA,Exp1a,None
1005,2,39,1,0,1,735,NA,Exp1a,None
1005,2,40,2,1,1,600,NA,Exp1a,None
1005,2,41,2,0,1,568,NA,Exp1a,None
1005,2,42,1,1,1,896,NA,Exp1a,None
1005,2,43,0,0,1,680,NA,Exp1a,None
1005,2,44,1,0,1,616,NA,Exp1a,None
1005,2,45,0,1,1,536,NA,Exp1a,None
1005,2,46,2,1,1,880,NA,Exp1a,None
1005,2,47,1,1,1,777,NA,Exp1a,None
1005,2,48,0,0,1,569,NA,Exp1a,None
1005,2,49,0,0,1,625,NA,Exp1a,None
1005,2,50,2,1,1,681,NA,Exp1a,None
1005,2,51,0,1,1,592,NA,Exp1a,None
1005,2,52,1,0,1,520,NA,Exp1a,None
1005,2,53,0,1,1,537,NA,Exp1a,None
1005,2,54,2,0,1,722,NA,Exp1a,None
1005,2,55,0,0,1,715,NA,Exp1a,None
1005,2,56,1,1,1,627,NA,Exp1a,None
1005,2,57,1,1,0,579,NA,Exp1a,None
1005,2,58,2,1,1,795,NA,Exp1a,None
1005,2,59,2,0,1,931,NA,Exp1a,None
1005,2,60,1,0,1,772,NA,Exp1a,None
1005,3,1,1,1,1,871,NA,Exp1a,None
1005,3,2,0,0,1,543,NA,Exp1a,None
1005,3,3,1,1,1,639,NA,Exp1a,None
1005,3,4,2,0,1,551,NA,Exp1a,None
1005,3,5,2,1,1,695,NA,Exp1a,None
1005,3,6,2,0,1,511,NA,Exp1a,None
1005,3,7,0,0,1,664,NA,Exp1a,None
1005,3,8,1,0,1,728,NA,Exp1a,None
1005,3,9,2,1,1,688,NA,Exp1a,None
1005,3,10,0,1,1,544,NA,Exp1a,None
1005,3,11,1,0,1,760,NA,Exp1a,None
1005,3,12,0,1,1,536,NA,Exp1a,None
1005,3,13,0,0,1,528,NA,Exp1a,None
1005,3,14,1,0,1,793,NA,Exp1a,None
1005,3,15,0,1,1,512,NA,Exp1a,None
1005,3,16,0,0,1,520,NA,Exp1a,None
1005,3,17,1,1,1,632,NA,Exp1a,None
1005,3,18,0,1,1,584,NA,Exp1a,None
1005,3,19,2,1,1,672,NA,Exp1a,None
1005,3,20,2,0,1,585,NA,Exp1a,None
1005,3,21,1,1,1,713,NA,Exp1a,None
1005,3,22,2,0,1,657,NA,Exp1a,None
1005,3,23,2,1,1,681,NA,Exp1a,None
1005,3,24,1,0,1,625,NA,Exp1a,None
1005,3,25,0,1,1,513,NA,Exp1a,None
1005,3,26,2,0,1,593,NA,Exp1a,None
1005,3,27,1,1,1,618,NA,Exp1a,None
1005,3,28,2,1,1,666,NA,Exp1a,None
1005,3,29,0,1,1,514,NA,Exp1a,None
1005,3,30,1,1,1,730,NA,Exp1a,None
1005,3,31,2,0,0,666,NA,Exp1a,None
1005,3,32,0,0,0,586,NA,Exp1a,None
1005,3,33,1,0,1,787,NA,Exp1a,None
1005,3,34,2,1,1,691,NA,Exp1a,None
1005,3,35,0,0,1,595,NA,Exp1a,None
1005,3,36,1,0,1,699,NA,Exp1a,None
1005,3,37,1,1,1,731,NA,Exp1a,None
1005,3,38,2,1,1,643,NA,Exp1a,None
1005,3,39,2,0,1,779,NA,Exp1a,None
1005,3,40,0,1,1,500,NA,Exp1a,None
1005,3,41,0,0,1,508,NA,Exp1a,None
1005,3,42,0,1,1,548,NA,Exp1a,None
1005,3,43,0,0,1,532,NA,Exp1a,None
1005,3,44,2,0,1,635,NA,Exp1a,None
1005,3,45,1,0,1,699,NA,Exp1a,None
1005,3,46,2,1,1,555,NA,Exp1a,None
1005,3,47,1,1,0,524,NA,Exp1a,None
1005,3,48,1,0,1,604,NA,Exp1a,None
1005,3,49,2,0,1,692,NA,Exp1a,None
1005,3,50,1,1,1,652,NA,Exp1a,None
1005,3,51,2,0,1,484,NA,Exp1a,None
1005,3,52,0,1,1,460,NA,Exp1a,None
1005,3,53,0,0,1,533,NA,Exp1a,None
1005,3,54,0,0,1,709,NA,Exp1a,None
1005,3,55,1,0,1,733,NA,Exp1a,None
1005,3,56,2,1,1,581,NA,Exp1a,None
1005,3,57,1,1,1,845,NA,Exp1a,None
1005,3,58,1,0,1,573,NA,Exp1a,None
1005,3,59,2,1,1,637,NA,Exp1a,None
1005,3,60,0,1,1,518,NA,Exp1a,None
1005,4,1,2,0,1,985,NA,Exp1a,None
1005,4,2,0,1,1,457,NA,Exp1a,None
1005,4,3,0,0,1,489,NA,Exp1a,None
1005,4,4,1,0,1,705,NA,Exp1a,None
1005,4,5,2,1,1,521,NA,Exp1a,None
1005,4,6,0,1,1,521,NA,Exp1a,None
1005,4,7,1,0,1,650,NA,Exp1a,None
1005,4,8,1,1,0,521,NA,Exp1a,None
1005,4,9,2,0,1,585,NA,Exp1a,None
1005,4,10,0,0,0,497,NA,Exp1a,None
1005,4,11,2,1,1,737,NA,Exp1a,None
1005,4,12,1,1,1,665,NA,Exp1a,None
1005,4,13,2,0,1,578,NA,Exp1a,None
1005,4,14,0,1,1,466,NA,Exp1a,None
1005,4,15,0,0,1,530,NA,Exp1a,None
1005,4,16,1,1,1,554,NA,Exp1a,None
1005,4,17,1,0,1,562,NA,Exp1a,None
1005,4,18,0,1,1,458,NA,Exp1a,None
1005,4,19,0,0,1,586,NA,Exp1a,None
1005,4,20,2,0,1,563,NA,Exp1a,None
1005,4,21,1,1,1,547,NA,Exp1a,None
1005,4,22,2,1,0,499,NA,Exp1a,None
1005,4,23,1,0,1,659,NA,Exp1a,None
1005,4,24,2,1,1,531,NA,Exp1a,None
1005,4,25,0,1,1,475,NA,Exp1a,None
1005,4,26,2,1,0,435,NA,Exp1a,None
1005,4,27,0,0,1,748,NA,Exp1a,None
1005,4,28,2,0,1,660,NA,Exp1a,None
1005,4,29,1,1,1,492,NA,Exp1a,None
1005,4,30,0,0,1,564,NA,Exp1a,None
1005,4,31,1,0,1,660,NA,Exp1a,None
1005,4,32,2,0,1,580,NA,Exp1a,None
1005,4,33,0,1,1,469,NA,Exp1a,None
1005,4,34,1,1,1,549,NA,Exp1a,None
1005,4,35,2,1,0,541,NA,Exp1a,None
1005,4,36,1,0,1,613,NA,Exp1a,None
1005,4,37,2,1,1,620,NA,Exp1a,None
1005,4,38,0,1,1,500,NA,Exp1a,None
1005,4,39,1,0,1,532,NA,Exp1a,None
1005,4,40,2,0,1,533,NA,Exp1a,None
1005,4,41,0,0,1,725,NA,Exp1a,None
1005,4,42,0,1,1,477,NA,Exp1a,None
1005,4,43,1,1,0,501,NA,Exp1a,None
1005,4,44,2,0,1,613,NA,Exp1a,None
1005,4,45,0,0,1,629,NA,Exp1a,None
1005,4,46,1,0,1,662,NA,Exp1a,None
1005,4,47,2,1,1,622,NA,Exp1a,None
1005,4,48,1,1,1,606,NA,Exp1a,None
1005,4,49,1,0,1,582,NA,Exp1a,None
1005,4,50,2,1,1,566,NA,Exp1a,None
1005,4,51,2,0,1,462,NA,Exp1a,None
1005,4,52,0,0,0,422,NA,Exp1a,None
1005,4,53,1,1,1,669,NA,Exp1a,None
1005,4,54,1,1,1,549,NA,Exp1a,None
1005,4,55,2,1,0,485,NA,Exp1a,None
1005,4,56,0,1,1,565,NA,Exp1a,None
1005,4,57,0,0,1,589,NA,Exp1a,None
1005,4,58,1,0,0,541,NA,Exp1a,None
1005,4,59,0,1,1,726,NA,Exp1a,None
1005,4,60,2,0,1,542,NA,Exp1a,None
1005,5,1,2,0,1,584,NA,Exp1a,None
1005,5,2,1,0,1,904,NA,Exp1a,None
1005,5,3,0,1,1,512,NA,Exp1a,None
1005,5,4,0,0,1,576,NA,Exp1a,None
1005,5,5,2,1,1,584,NA,Exp1a,None
1005,5,6,2,1,1,673,NA,Exp1a,None
1005,5,7,0,0,1,537,NA,Exp1a,None
1005,5,8,1,1,1,529,NA,Exp1a,None
1005,5,9,2,0,1,713,NA,Exp1a,None
1005,5,10,0,1,1,433,NA,Exp1a,None
1005,5,11,1,0,1,633,NA,Exp1a,None
1005,5,12,1,1,1,689,NA,Exp1a,None
1005,5,13,1,0,1,594,NA,Exp1a,None
1005,5,14,2,0,1,610,NA,Exp1a,None
1005,5,15,2,0,1,546,NA,Exp1a,None
1005,5,16,0,0,1,802,NA,Exp1a,None
1005,5,17,0,0,1,618,NA,Exp1a,None
1005,5,18,2,1,1,610,NA,Exp1a,None
1005,5,19,1,1,1,491,NA,Exp1a,None
1005,5,20,1,1,1,771,NA,Exp1a,None
1005,5,21,1,0,1,491,NA,Exp1a,None
1005,5,22,0,1,1,531,NA,Exp1a,None
1005,5,23,2,1,1,507,NA,Exp1a,None
1005,5,24,0,1,1,571,NA,Exp1a,None
1005,5,25,0,0,1,555,NA,Exp1a,None
1005,5,26,1,1,1,564,NA,Exp1a,None
1005,5,27,1,0,1,812,NA,Exp1a,None
1005,5,28,0,0,0,500,NA,Exp1a,None
1005,5,29,2,0,1,668,NA,Exp1a,None
1005,5,30,0,1,1,540,NA,Exp1a,None
1005,5,31,1,0,1,675,NA,Exp1a,None
1005,5,32,2,1,1,635,NA,Exp1a,None
1005,5,33,2,1,0,524,NA,Exp1a,None
1005,5,34,2,0,1,604,NA,Exp1a,None
1005,5,35,0,1,1,556,NA,Exp1a,None
1005,5,36,1,1,1,636,NA,Exp1a,None
1005,5,37,0,1,1,636,NA,Exp1a,None
1005,5,38,2,0,1,588,NA,Exp1a,None
1005,5,39,1,0,1,693,NA,Exp1a,None
1005,5,40,1,1,1,765,NA,Exp1a,None
1005,5,41,1,0,1,621,NA,Exp1a,None
1005,5,42,2,1,1,557,NA,Exp1a,None
1005,5,43,0,0,1,829,NA,Exp1a,None
1005,5,44,1,1,1,813,NA,Exp1a,None
1005,5,45,0,1,1,565,NA,Exp1a,None
1005,5,46,0,0,1,510,NA,Exp1a,None
1005,5,47,2,0,1,598,NA,Exp1a,None
1005,5,48,2,1,1,654,NA,Exp1a,None
1005,5,49,2,1,1,582,NA,Exp1a,None
1005,5,50,1,0,1,614,NA,Exp1a,None
1005,5,51,2,1,1,574,NA,Exp1a,None
1005,5,52,1,1,1,679,NA,Exp1a,None
1005,5,53,2,0,1,695,NA,Exp1a,None
1005,5,54,2,0,1,559,NA,Exp1a,None
1005,5,55,1,0,1,687,NA,Exp1a,None
1005,5,56,0,1,1,471,NA,Exp1a,None
1005,5,57,1,1,1,703,NA,Exp1a,None
1005,5,58,0,0,1,543,NA,Exp1a,None
1005,5,59,0,0,1,560,NA,Exp1a,None
1005,5,60,0,1,1,519,NA,Exp1a,None
1005,6,1,0,1,1,666,NA,Exp1a,None
1005,6,2,2,1,1,666,NA,Exp1a,None
1005,6,3,0,0,1,738,NA,Exp1a,None
1005,6,4,0,0,1,522,NA,Exp1a,None
1005,6,5,2,0,1,658,NA,Exp1a,None
1005,6,6,1,1,1,515,NA,Exp1a,None
1005,6,7,1,1,1,507,NA,Exp1a,None
1005,6,8,2,0,1,499,NA,Exp1a,None
1005,6,9,0,1,1,483,NA,Exp1a,None
1005,6,10,1,0,1,547,NA,Exp1a,None
1005,6,11,1,0,1,755,NA,Exp1a,None
1005,6,12,2,1,1,604,NA,Exp1a,None
1005,6,13,0,1,0,468,NA,Exp1a,None
1005,6,14,2,1,1,644,NA,Exp1a,None
1005,6,15,0,0,1,556,NA,Exp1a,None
1005,6,16,0,0,1,532,NA,Exp1a,None
1005,6,17,1,1,1,604,NA,Exp1a,None
1005,6,18,1,0,1,556,NA,Exp1a,None
1005,6,19,1,0,1,605,NA,Exp1a,None
1005,6,20,1,1,1,725,NA,Exp1a,None
1005,6,21,2,1,0,541,NA,Exp1a,None
1005,6,22,2,0,1,581,NA,Exp1a,None
1005,6,23,0,1,1,493,NA,Exp1a,None
1005,6,24,2,0,1,564,NA,Exp1a,None
1005,6,25,2,1,1,597,NA,Exp1a,None
1005,6,26,1,0,1,773,NA,Exp1a,None
1005,6,27,1,1,1,549,NA,Exp1a,None
1005,6,28,2,0,1,565,NA,Exp1a,None
1005,6,29,1,0,1,861,NA,Exp1a,None
1005,6,30,0,1,1,477,NA,Exp1a,None
1005,6,31,0,0,1,557,NA,Exp1a,None
1005,6,32,2,1,1,518,NA,Exp1a,None
1005,6,33,1,1,0,542,NA,Exp1a,None
1005,6,34,0,0,1,638,NA,Exp1a,None
1005,6,35,0,1,1,470,NA,Exp1a,None
1005,6,36,2,0,1,526,NA,Exp1a,None
1005,6,37,1,0,1,646,NA,Exp1a,None
1005,6,38,2,1,1,574,NA,Exp1a,None
1005,6,39,1,1,0,591,NA,Exp1a,None
1005,6,40,1,0,1,623,NA,Exp1a,None
1005,6,41,0,1,1,511,NA,Exp1a,None
1005,6,42,1,1,1,663,NA,Exp1a,None
1005,6,43,0,1,1,655,NA,Exp1a,None
1005,6,44,0,0,1,607,NA,Exp1a,None
1005,6,45,2,0,0,512,NA,Exp1a,None
1005,6,46,2,0,1,600,NA,Exp1a,None
1005,6,47,2,1,1,552,NA,Exp1a,None
1005,6,48,0,0,0,576,NA,Exp1a,None
1005,6,49,2,1,1,568,NA,Exp1a,None
1005,6,50,0,0,1,528,NA,Exp1a,None
1005,6,51,1,0,1,792,NA,Exp1a,None
1005,6,52,2,0,0,585,NA,Exp1a,None
1005,6,53,1,1,1,616,NA,Exp1a,None
1005,6,54,2,0,1,480,NA,Exp1a,None
1005,6,55,1,0,1,688,NA,Exp1a,None
1005,6,56,0,1,1,648,NA,Exp1a,None
1005,6,57,1,1,1,680,NA,Exp1a,None
1005,6,58,0,0,1,585,NA,Exp1a,None
1005,6,59,2,1,1,553,NA,Exp1a,None
1005,6,60,0,1,1,649,NA,Exp1a,None
1006,1,1,0,0,0,794,NA,Exp1a,None
1006,1,2,2,0,1,250,NA,Exp1a,None
1006,1,3,2,0,0,650,NA,Exp1a,None
1006,1,4,0,0,1,289,NA,Exp1a,None
1006,1,5,0,1,1,387,NA,Exp1a,None
1006,1,6,1,0,1,314,NA,Exp1a,None
1006,1,7,0,1,1,362,NA,Exp1a,None
1006,1,8,2,1,0,338,NA,Exp1a,None
1006,1,9,1,0,0,234,NA,Exp1a,None
1006,1,10,1,1,0,402,NA,Exp1a,None
1006,1,11,2,1,1,370,NA,Exp1a,None
1006,1,12,1,1,0,363,NA,Exp1a,None
1006,1,14,0,0,1,507,NA,Exp1a,None
1006,1,15,0,1,1,259,NA,Exp1a,None
1006,1,16,1,1,0,283,NA,Exp1a,None
1006,1,17,2,1,1,243,NA,Exp1a,None
1006,1,18,2,0,1,324,NA,Exp1a,None
1006,1,19,1,0,0,372,NA,Exp1a,None
1006,1,20,2,1,0,316,NA,Exp1a,None
1006,1,21,2,0,0,340,NA,Exp1a,None
1006,1,22,1,1,1,708,NA,Exp1a,None
1006,1,24,1,0,1,842,NA,Exp1a,None
1006,1,25,1,0,0,515,NA,Exp1a,None
1006,1,26,0,1,0,356,NA,Exp1a,None
1006,1,27,1,1,1,429,NA,Exp1a,None
1006,1,28,2,1,1,589,NA,Exp1a,None
1006,1,29,1,0,1,429,NA,Exp1a,None
1006,1,30,1,1,1,373,NA,Exp1a,None
1006,1,31,2,0,0,533,NA,Exp1a,None
1006,1,32,2,0,1,382,NA,Exp1a,None
1006,1,33,0,0,0,494,NA,Exp1a,None
1006,1,34,0,0,0,565,NA,Exp1a,None
1006,1,35,0,1,1,469,NA,Exp1a,None
1006,1,36,2,1,0,853,NA,Exp1a,None
1006,1,37,1,1,1,669,NA,Exp1a,None
1006,1,38,0,0,0,558,NA,Exp1a,None
1006,1,39,1,0,1,606,NA,Exp1a,None
1006,1,40,2,1,1,492,NA,Exp1a,None
1006,1,41,2,0,1,612,NA,Exp1a,None
1006,1,42,0,1,0,884,NA,Exp1a,None
1006,1,43,1,0,0,676,NA,Exp1a,None
1006,1,44,0,1,0,628,NA,Exp1a,None
1006,1,45,2,0,0,597,NA,Exp1a,None
1006,1,46,2,1,1,637,NA,Exp1a,None
1006,1,47,0,0,1,597,NA,Exp1a,None
1006,1,48,1,1,1,765,NA,Exp1a,None
1006,1,49,0,0,1,613,NA,Exp1a,None
1006,1,50,0,0,1,701,NA,Exp1a,None
1006,1,51,0,1,0,901,NA,Exp1a,None
1006,1,52,0,1,1,742,NA,Exp1a,None
1006,1,53,2,1,1,542,NA,Exp1a,None
1006,1,54,2,0,1,694,NA,Exp1a,None
1006,1,55,1,1,1,646,NA,Exp1a,None
1006,1,56,1,0,1,654,NA,Exp1a,None
1006,1,57,2,1,1,726,NA,Exp1a,None
1006,1,58,1,1,0,487,NA,Exp1a,None
1006,1,59,1,0,0,519,NA,Exp1a,None
1006,1,60,2,0,0,471,NA,Exp1a,None
1006,2,1,1,1,1,767,NA,Exp1a,None
1006,2,2,0,1,0,647,NA,Exp1a,None
1006,2,3,0,1,1,943,NA,Exp1a,None
1006,2,4,2,0,1,879,NA,Exp1a,None
1006,2,5,2,1,1,432,NA,Exp1a,None
1006,2,6,0,0,1,400,NA,Exp1a,None
1006,2,7,1,0,0,712,NA,Exp1a,None
1006,2,8,2,0,1,896,NA,Exp1a,None
1006,2,9,0,0,1,848,NA,Exp1a,None
1006,2,10,1,1,1,960,NA,Exp1a,None
1006,2,11,2,1,1,680,NA,Exp1a,None
1006,2,12,1,0,1,577,NA,Exp1a,None
1006,2,13,2,1,1,553,NA,Exp1a,None
1006,2,14,1,1,1,793,NA,Exp1a,None
1006,2,15,2,1,1,449,NA,Exp1a,None
1006,2,16,0,0,1,697,NA,Exp1a,None
1006,2,17,2,0,0,537,NA,Exp1a,None
1006,2,18,0,1,0,714,NA,Exp1a,None
1006,2,19,2,0,1,938,NA,Exp1a,None
1006,2,20,1,1,1,706,NA,Exp1a,None
1006,2,21,0,1,0,850,NA,Exp1a,None
1006,2,22,1,0,0,618,NA,Exp1a,None
1006,2,23,1,0,0,570,NA,Exp1a,None
1006,2,24,0,0,0,826,NA,Exp1a,None
1006,2,25,1,1,0,835,NA,Exp1a,None
1006,2,26,1,1,1,723,NA,Exp1a,None
1006,2,27,2,0,1,722,NA,Exp1a,None
1006,2,28,2,1,1,370,NA,Exp1a,None
1006,2,29,0,0,1,754,NA,Exp1a,None
1006,2,30,0,1,1,690,NA,Exp1a,None
1006,2,31,2,0,1,698,NA,Exp1a,None
1006,2,32,2,1,1,532,NA,Exp1a,None
1006,2,33,1,0,1,781,NA,Exp1a,None
1006,2,34,0,0,0,621,NA,Exp1a,None
1006,2,35,1,0,0,717,NA,Exp1a,None
1006,2,36,0,1,1,733,NA,Exp1a,None
1006,2,37,1,0,1,653,NA,Exp1a,None
1006,2,38,2,1,1,478,NA,Exp1a,None
1006,2,39,1,0,1,902,NA,Exp1a,None
1006,2,40,0,1,1,814,NA,Exp1a,None
1006,2,41,1,1,1,846,NA,Exp1a,None
1006,2,42,2,0,1,862,NA,Exp1a,None
1006,2,43,0,0,1,918,NA,Exp1a,None
1006,2,44,2,1,1,654,NA,Exp1a,None
1006,2,45,1,1,0,767,NA,Exp1a,None
1006,2,46,2,0,0,855,NA,Exp1a,None
1006,2,47,0,1,0,887,NA,Exp1a,None
1006,2,48,0,0,0,951,NA,Exp1a,None
1006,2,49,0,0,1,1015,NA,Exp1a,None
1006,2,50,1,1,0,1079,NA,Exp1a,None
1006,2,51,1,1,1,640,NA,Exp1a,None
1006,2,52,2,0,0,480,NA,Exp1a,None
1006,2,53,0,1,0,920,NA,Exp1a,None
1006,2,54,2,1,1,704,NA,Exp1a,None
1006,2,55,0,0,1,616,NA,Exp1a,None
1006,2,56,1,0,1,623,NA,Exp1a,None
1006,2,57,2,0,1,895,NA,Exp1a,None
1006,2,58,2,1,1,440,NA,Exp1a,None
1006,2,59,1,0,1,912,NA,Exp1a,None
1006,3,1,0,1,0,643,NA,Exp1a,None
1006,3,2,2,1,1,459,NA,Exp1a,None
1006,3,3,1,1,1,571,NA,Exp1a,None
1006,3,4,0,0,1,683,NA,Exp1a,None
1006,3,5,1,1,0,643,NA,Exp1a,None
1006,3,6,0,0,0,644,NA,Exp1a,None
1006,3,7,1,0,0,652,NA,Exp1a,None
1006,3,8,1,0,1,996,NA,Exp1a,None
1006,3,9,2,0,1,908,NA,Exp1a,None
1006,3,10,2,0,1,804,NA,Exp1a,None
1006,3,11,2,1,1,412,NA,Exp1a,None
1006,3,12,0,1,1,837,NA,Exp1a,None
1006,3,13,2,0,1,765,NA,Exp1a,None
1006,3,14,2,1,1,613,NA,Exp1a,None
1006,3,15,0,1,0,613,NA,Exp1a,None
1006,3,16,2,1,1,677,NA,Exp1a,None
1006,3,17,0,0,0,781,NA,Exp1a,None
1006,3,18,0,1,1,838,NA,Exp1a,None
1006,3,19,1,1,1,798,NA,Exp1a,None
1006,3,20,1,0,1,597,NA,Exp1a,None
1006,3,21,0,0,1,1077,NA,Exp1a,None
1006,3,25,1,1,1,438,NA,Exp1a,None
1006,3,27,2,0,0,662,NA,Exp1a,None
1006,3,28,2,0,1,870,NA,Exp1a,None
1006,3,29,0,0,1,718,NA,Exp1a,None
1006,3,30,1,1,1,702,NA,Exp1a,None
1006,3,31,2,1,0,711,NA,Exp1a,None
1006,3,32,1,0,0,911,NA,Exp1a,None
1006,3,33,0,1,1,631,NA,Exp1a,None
1006,3,34,1,0,1,671,NA,Exp1a,None
1006,3,35,0,1,1,535,NA,Exp1a,None
1006,3,36,2,1,1,655,NA,Exp1a,None
1006,3,37,1,1,1,823,NA,Exp1a,None
1006,3,38,1,0,1,808,NA,Exp1a,None
1006,3,39,2,1,1,488,NA,Exp1a,None
1006,3,40,0,0,1,816,NA,Exp1a,None
1006,3,41,0,1,0,768,NA,Exp1a,None
1006,3,42,1,0,0,504,NA,Exp1a,None
1006,3,43,1,1,1,648,NA,Exp1a,None
1006,3,44,2,1,1,649,NA,Exp1a,None
1006,3,45,0,0,1,761,NA,Exp1a,None
1006,3,47,2,0,1,1017,NA,Exp1a,None
1006,3,48,0,1,1,977,NA,Exp1a,None
1006,3,49,2,1,1,1064,NA,Exp1a,None
1006,3,50,1,1,1,792,NA,Exp1a,None
1006,3,51,0,1,0,721,NA,Exp1a,None
1006,3,52,2,0,1,841,NA,Exp1a,None
1006,3,53,0,0,0,785,NA,Exp1a,None
1006,3,54,1,0,1,777,NA,Exp1a,None
1006,3,55,2,0,1,993,NA,Exp1a,None
1006,3,56,0,1,1,769,NA,Exp1a,None
1006,3,57,0,0,1,697,NA,Exp1a,None
1006,3,58,2,1,1,738,NA,Exp1a,None
1006,3,59,1,1,1,882,NA,Exp1a,None
1006,3,60,1,0,1,746,NA,Exp1a,None
1006,4,2,1,1,1,957,NA,Exp1a,None
1006,4,3,1,1,0,581,NA,Exp1a,None
1006,4,4,2,1,1,605,NA,Exp1a,None
1006,4,5,0,1,1,982,NA,Exp1a,None
1006,4,6,2,1,1,566,NA,Exp1a,None
1006,4,7,0,1,1,1006,NA,Exp1a,None
1006,4,8,1,0,1,566,NA,Exp1a,None
1006,4,9,2,0,0,606,NA,Exp1a,None
1006,4,10,1,0,0,654,NA,Exp1a,None
1006,4,11,0,0,1,951,NA,Exp1a,None
1006,4,12,2,0,1,895,NA,Exp1a,None
1006,4,13,0,0,1,678,NA,Exp1a,None
1006,4,14,2,1,1,766,NA,Exp1a,None
1006,4,15,1,1,0,638,NA,Exp1a,None
1006,4,16,2,1,1,590,NA,Exp1a,None
1006,4,17,2,0,0,606,NA,Exp1a,None
1006,4,18,0,0,1,671,NA,Exp1a,None
1006,4,19,1,1,1,639,NA,Exp1a,None
1006,4,20,0,1,1,615,NA,Exp1a,None
1006,4,21,2,0,1,543,NA,Exp1a,None
1006,4,22,1,0,0,863,NA,Exp1a,None
1006,4,23,0,1,1,703,NA,Exp1a,None
1006,4,24,1,0,1,872,NA,Exp1a,None
1006,4,25,1,0,0,968,NA,Exp1a,None
1006,4,26,0,0,1,824,NA,Exp1a,None
1006,4,27,1,1,1,744,NA,Exp1a,None
1006,4,28,2,1,1,648,NA,Exp1a,None
1006,4,29,2,0,1,704,NA,Exp1a,None
1006,4,30,1,1,1,776,NA,Exp1a,None
1006,4,31,0,1,1,897,NA,Exp1a,None
1006,4,32,2,1,0,537,NA,Exp1a,None
1006,4,33,2,0,0,553,NA,Exp1a,None
1006,4,34,1,0,1,897,NA,Exp1a,None
1006,4,36,0,0,1,599,NA,Exp1a,None
1006,4,37,1,1,1,624,NA,Exp1a,None
1006,4,38,2,1,0,432,NA,Exp1a,None
1006,4,39,2,0,1,608,NA,Exp1a,None
1006,4,40,0,1,1,784,NA,Exp1a,None
1006,4,41,0,1,1,552,NA,Exp1a,None
1006,4,42,1,0,1,712,NA,Exp1a,None
1006,4,43,2,0,0,624,NA,Exp1a,None
1006,4,44,0,0,1,936,NA,Exp1a,None
1006,4,45,1,0,1,632,NA,Exp1a,None
1006,4,46,1,1,0,736,NA,Exp1a,None
1006,4,47,0,0,1,976,NA,Exp1a,None
1006,4,48,2,1,0,488,NA,Exp1a,None
1006,4,49,2,0,0,568,NA,Exp1a,None
1006,4,50,1,0,1,385,NA,Exp1a,None
1006,4,51,0,0,1,706,NA,Exp1a,None
1006,4,52,0,1,1,499,NA,Exp1a,None
1006,4,53,0,0,1,483,NA,Exp1a,None
1006,4,54,2,1,0,699,NA,Exp1a,None
1006,4,55,1,1,0,627,NA,Exp1a,None
1006,4,56,1,1,1,435,NA,Exp1a,None
1006,4,57,2,0,1,444,NA,Exp1a,None
1006,4,58,2,1,1,492,NA,Exp1a,None
1006,4,59,0,1,1,700,NA,Exp1a,None
1006,4,60,1,0,1,828,NA,Exp1a,None
1006,5,1,1,1,0,815,NA,Exp1a,None
1006,5,2,2,1,1,519,NA,Exp1a,None
1006,5,3,0,0,1,591,NA,Exp1a,None
1006,5,4,0,1,1,840,NA,Exp1a,None
1006,5,5,2,0,0,368,NA,Exp1a,None
1006,5,6,0,0,1,655,NA,Exp1a,None
1006,5,7,2,0,1,719,NA,Exp1a,None
1006,5,8,1,0,1,783,NA,Exp1a,None
1006,5,9,2,1,1,551,NA,Exp1a,None
1006,5,10,1,0,1,551,NA,Exp1a,None
1006,5,11,1,1,0,632,NA,Exp1a,None
1006,5,12,0,1,0,696,NA,Exp1a,None
1006,5,13,1,0,1,752,NA,Exp1a,None
1006,5,14,1,1,1,736,NA,Exp1a,None
1006,5,15,0,1,1,872,NA,Exp1a,None
1006,5,16,0,0,1,664,NA,Exp1a,None
1006,5,17,2,1,1,521,NA,Exp1a,None
1006,5,18,1,0,0,921,NA,Exp1a,None
1006,5,19,2,0,1,737,NA,Exp1a,None
1006,5,20,1,1,0,617,NA,Exp1a,None
1006,5,21,0,0,0,649,NA,Exp1a,None
1006,5,22,0,1,0,737,NA,Exp1a,None
1006,5,23,2,1,1,673,NA,Exp1a,None
1006,5,24,2,0,1,938,NA,Exp1a,None
1006,5,25,1,0,1,946,NA,Exp1a,None
1006,5,26,2,0,1,682,NA,Exp1a,None
1006,5,27,0,0,1,618,NA,Exp1a,None
1006,5,28,1,1,1,722,NA,Exp1a,None
1006,5,29,1,0,0,490,NA,Exp1a,None
1006,5,30,1,1,1,667,NA,Exp1a,None
1006,5,31,0,1,0,675,NA,Exp1a,None
1006,5,32,2,0,0,699,NA,Exp1a,None
1006,5,33,2,1,1,659,NA,Exp1a,None
1006,5,34,2,1,0,419,NA,Exp1a,None
1006,5,35,0,1,1,819,NA,Exp1a,None
1006,5,36,0,0,0,722,NA,Exp1a,None
1006,5,37,1,0,0,619,NA,Exp1a,None
1006,5,38,2,1,1,619,NA,Exp1a,None
1006,5,39,0,1,0,491,NA,Exp1a,None
1006,5,40,2,0,0,459,NA,Exp1a,None
1006,5,41,2,0,1,291,NA,Exp1a,None
1006,5,43,0,0,1,860,NA,Exp1a,None
1006,5,44,2,1,1,484,NA,Exp1a,None
1006,5,45,1,1,0,692,NA,Exp1a,None
1006,5,46,1,1,1,708,NA,Exp1a,None
1006,5,47,0,0,1,724,NA,Exp1a,None
1006,5,48,1,0,1,876,NA,Exp1a,None
1006,5,49,2,1,1,548,NA,Exp1a,None
1006,5,50,2,1,1,685,NA,Exp1a,None
1006,5,51,0,1,1,733,NA,Exp1a,None
1006,5,52,0,0,1,805,NA,Exp1a,None
1006,5,53,1,1,1,677,NA,Exp1a,None
1006,5,54,1,0,0,853,NA,Exp1a,None
1006,5,55,2,0,1,789,NA,Exp1a,None
1006,5,56,0,0,0,790,NA,Exp1a,None
1006,5,57,1,0,1,798,NA,Exp1a,None
1006,5,58,2,0,1,878,NA,Exp1a,None
1006,5,59,1,1,0,694,NA,Exp1a,None
1006,5,60,0,1,0,1022,NA,Exp1a,None
1006,6,1,2,1,1,670,NA,Exp1a,None
1006,6,2,0,1,1,830,NA,Exp1a,None
1006,6,3,0,0,1,519,NA,Exp1a,None
1006,6,4,0,1,0,751,NA,Exp1a,None
1006,6,5,1,1,1,695,NA,Exp1a,None
1006,6,6,2,0,1,695,NA,Exp1a,None
1006,6,7,1,0,1,663,NA,Exp1a,None
1006,6,8,1,1,0,607,NA,Exp1a,None
1006,6,9,2,1,1,631,NA,Exp1a,None
1006,6,10,0,0,1,760,NA,Exp1a,None
1006,6,11,1,0,0,632,NA,Exp1a,None
1006,6,12,2,0,1,656,NA,Exp1a,None
1006,6,13,2,1,1,528,NA,Exp1a,None
1006,6,14,0,0,1,584,NA,Exp1a,None
1006,6,15,2,1,1,776,NA,Exp1a,None
1006,6,16,0,1,0,545,NA,Exp1a,None
1006,6,17,1,0,0,769,NA,Exp1a,None
1006,6,18,2,0,1,633,NA,Exp1a,None
1006,6,19,2,0,1,745,NA,Exp1a,None
1006,6,20,1,1,0,473,NA,Exp1a,None
1006,6,21,0,0,0,545,NA,Exp1a,None
1006,6,22,1,0,1,737,NA,Exp1a,None
1006,6,23,0,1,1,818,NA,Exp1a,None
1006,6,24,1,1,0,602,NA,Exp1a,None
1006,6,25,1,0,0,610,NA,Exp1a,None
1006,6,26,0,1,1,570,NA,Exp1a,None
1006,6,27,0,0,1,658,NA,Exp1a,None
1006,6,28,0,1,1,810,NA,Exp1a,None
1006,6,29,0,0,1,722,NA,Exp1a,None
1006,6,30,1,1,0,754,NA,Exp1a,None
1006,6,31,2,0,0,674,NA,Exp1a,None
1006,6,32,2,0,0,562,NA,Exp1a,None
1006,6,33,1,0,1,642,NA,Exp1a,None
1006,6,34,2,1,1,570,NA,Exp1a,None
1006,6,35,1,1,0,642,NA,Exp1a,None
1006,6,36,2,1,1,443,NA,Exp1a,None
1006,6,37,1,0,1,531,NA,Exp1a,None
1006,6,38,2,0,1,651,NA,Exp1a,None
1006,6,39,2,0,0,587,NA,Exp1a,None
1006,6,40,2,1,1,475,NA,Exp1a,None
1006,6,41,1,1,1,747,NA,Exp1a,None
1006,6,42,0,1,1,563,NA,Exp1a,None
1006,6,43,0,0,1,652,NA,Exp1a,None
1006,6,44,0,0,1,868,NA,Exp1a,None
1006,6,45,2,1,1,660,NA,Exp1a,None
1006,6,46,1,0,0,644,NA,Exp1a,None
1006,6,47,1,1,1,876,NA,Exp1a,None
1006,6,48,0,1,1,596,NA,Exp1a,None
1006,6,49,1,1,0,613,NA,Exp1a,None
1006,6,50,2,0,1,925,NA,Exp1a,None
1006,6,51,1,0,0,821,NA,Exp1a,None
1006,6,52,1,1,0,717,NA,Exp1a,None
1006,6,53,0,1,1,597,NA,Exp1a,None
1006,6,54,0,0,1,685,NA,Exp1a,None
1006,6,55,0,0,1,725,NA,Exp1a,None
1006,6,56,2,0,1,830,NA,Exp1a,None
1006,6,57,0,1,0,486,NA,Exp1a,None
1006,6,58,1,0,0,662,NA,Exp1a,None
1006,6,59,2,1,1,677,NA,Exp1a,None
1006,6,60,2,1,1,549,NA,Exp1a,None
1007,1,1,2,0,1,1089,NA,Exp1a,None
1007,1,2,1,1,1,931,NA,Exp1a,None
1007,1,3,2,1,1,751,NA,Exp1a,None
1007,1,4,0,0,1,706,NA,Exp1a,None
1007,1,5,0,0,1,758,NA,Exp1a,None
1007,1,6,1,0,1,769,NA,Exp1a,None
1007,1,7,2,1,1,748,NA,Exp1a,None
1007,1,8,1,1,1,816,NA,Exp1a,None
1007,1,9,0,1,1,587,NA,Exp1a,None
1007,1,10,2,0,1,711,NA,Exp1a,None
1007,1,11,0,1,1,674,NA,Exp1a,None
1007,1,12,1,0,1,718,NA,Exp1a,None
1007,1,13,2,0,1,889,NA,Exp1a,None
1007,1,14,0,0,1,852,NA,Exp1a,None
1007,1,15,1,1,1,680,NA,Exp1a,None
1007,1,16,0,0,1,731,NA,Exp1a,None
1007,1,17,0,1,1,703,NA,Exp1a,None
1007,1,18,2,1,1,562,NA,Exp1a,None
1007,1,19,1,1,0,709,NA,Exp1a,None
1007,1,20,0,1,1,761,NA,Exp1a,None
1007,1,21,1,0,1,956,NA,Exp1a,None
1007,1,22,2,0,1,1072,NA,Exp1a,None
1007,1,23,1,0,1,786,NA,Exp1a,None
1007,1,24,2,1,1,646,NA,Exp1a,None
1007,1,25,2,0,1,657,NA,Exp1a,None
1007,1,26,2,1,0,644,NA,Exp1a,None
1007,1,27,1,0,1,712,NA,Exp1a,None
1007,1,28,0,0,0,611,NA,Exp1a,None
1007,1,29,0,0,1,727,NA,Exp1a,None
1007,1,30,0,1,1,666,NA,Exp1a,None
1007,1,31,0,1,1,590,NA,Exp1a,None
1007,1,32,1,1,1,745,NA,Exp1a,None
1007,1,33,1,0,1,724,NA,Exp1a,None
1007,1,34,2,1,1,760,NA,Exp1a,None
1007,1,35,2,0,1,699,NA,Exp1a,None
1007,1,36,1,1,1,503,NA,Exp1a,None
1007,1,37,1,0,1,698,NA,Exp1a,None
1007,1,38,1,1,1,774,NA,Exp1a,None
1007,1,39,2,0,1,841,NA,Exp1a,None
1007,1,40,2,0,1,812,NA,Exp1a,None
1007,1,41,2,1,1,696,NA,Exp1a,None
1007,1,42,1,1,1,683,NA,Exp1a,None
1007,1,43,1,0,1,679,NA,Exp1a,None
1007,1,44,0,1,1,537,NA,Exp1a,None
1007,1,45,0,0,1,605,NA,Exp1a,None
1007,1,46,0,1,1,560,NA,Exp1a,None
1007,1,47,0,0,1,571,NA,Exp1a,None
1007,1,48,2,1,1,695,NA,Exp1a,None
1007,1,49,2,1,1,642,NA,Exp1a,None
1007,1,50,0,1,1,526,NA,Exp1a,None
1007,1,51,1,0,1,553,NA,Exp1a,None
1007,1,52,0,1,1,484,NA,Exp1a,None
1007,1,53,2,1,1,600,NA,Exp1a,None
1007,1,54,1,1,1,443,NA,Exp1a,None
1007,1,55,2,0,1,903,NA,Exp1a,None
1007,1,56,2,0,1,714,NA,Exp1a,None
1007,1,57,1,1,1,614,NA,Exp1a,None
1007,1,58,1,0,1,705,NA,Exp1a,None
1007,1,59,0,0,1,772,NA,Exp1a,None
1007,1,60,0,0,0,584,NA,Exp1a,None
1007,2,1,0,1,1,660,NA,Exp1a,None
1007,2,2,2,0,1,680,NA,Exp1a,None
1007,2,3,1,1,1,659,NA,Exp1a,None
1007,2,4,2,0,1,702,NA,Exp1a,None
1007,2,5,0,1,1,586,NA,Exp1a,None
1007,2,6,0,0,1,709,NA,Exp1a,None
1007,2,7,2,1,1,681,NA,Exp1a,None
1007,2,8,0,0,1,796,NA,Exp1a,None
1007,2,9,1,0,1,672,NA,Exp1a,None
1007,2,10,2,1,1,699,NA,Exp1a,None
1007,2,11,1,0,1,790,NA,Exp1a,None
1007,2,12,1,1,1,618,NA,Exp1a,None
1007,2,13,1,0,1,613,NA,Exp1a,None
1007,2,14,0,1,1,569,NA,Exp1a,None
1007,2,15,2,0,1,644,NA,Exp1a,None
1007,2,16,2,1,1,784,NA,Exp1a,None
1007,2,17,1,1,1,707,NA,Exp1a,None
1007,2,18,1,1,1,798,NA,Exp1a,None
1007,2,19,2,0,1,737,NA,Exp1a,None
1007,2,20,1,0,1,804,NA,Exp1a,None
1007,2,21,0,0,1,736,NA,Exp1a,None
1007,2,22,0,1,1,499,NA,Exp1a,None
1007,2,23,0,0,1,687,NA,Exp1a,None
1007,2,24,2,1,1,802,NA,Exp1a,None
1007,2,25,1,1,1,709,NA,Exp1a,None
1007,2,26,0,0,1,673,NA,Exp1a,None
1007,2,27,0,1,1,612,NA,Exp1a,None
1007,2,28,2,1,1,704,NA,Exp1a,None
1007,2,29,0,0,1,667,NA,Exp1a,None
1007,2,30,1,0,1,678,NA,Exp1a,None
1007,2,31,2,0,1,746,NA,Exp1a,None
1007,2,32,0,1,1,589,NA,Exp1a,None
1007,2,33,2,0,1,729,NA,Exp1a,None
1007,2,34,1,0,1,756,NA,Exp1a,None
1007,2,35,1,1,1,520,NA,Exp1a,None
1007,2,36,2,1,0,563,NA,Exp1a,None
1007,2,37,2,0,1,934,NA,Exp1a,None
1007,2,38,0,0,1,778,NA,Exp1a,None
1007,2,39,2,1,1,837,NA,Exp1a,None
1007,2,40,2,1,1,648,NA,Exp1a,None
1007,2,41,1,0,1,771,NA,Exp1a,None
1007,2,42,1,1,1,639,NA,Exp1a,None
1007,2,43,1,1,1,538,NA,Exp1a,None
1007,2,44,0,1,1,493,NA,Exp1a,None
1007,2,45,0,1,1,497,NA,Exp1a,None
1007,2,46,2,0,1,988,NA,Exp1a,None
1007,2,47,1,0,1,816,NA,Exp1a,None
1007,2,48,0,0,1,747,NA,Exp1a,None
1007,2,49,0,0,1,631,NA,Exp1a,None
1007,2,50,1,1,1,794,NA,Exp1a,None
1007,2,51,2,0,1,765,NA,Exp1a,None
1007,2,52,0,1,1,777,NA,Exp1a,None
1007,2,53,2,0,1,668,NA,Exp1a,None
1007,2,54,1,0,1,784,NA,Exp1a,None
1007,2,55,2,1,1,851,NA,Exp1a,None
1007,2,56,0,0,1,726,NA,Exp1a,None
1007,2,57,1,1,1,666,NA,Exp1a,None
1007,2,58,1,0,1,725,NA,Exp1a,None
1007,2,59,0,1,1,553,NA,Exp1a,None
1007,2,60,2,1,1,675,NA,Exp1a,None
1007,3,1,2,0,1,753,NA,Exp1a,None
1007,3,2,0,1,1,588,NA,Exp1a,None
1007,3,3,2,1,1,679,NA,Exp1a,None
1007,3,4,0,1,1,803,NA,Exp1a,None
1007,3,5,1,0,1,574,NA,Exp1a,None
1007,3,6,2,1,1,826,NA,Exp1a,None
1007,3,7,0,0,1,709,NA,Exp1a,None
1007,3,8,1,0,1,688,NA,Exp1a,None
1007,3,9,2,0,1,716,NA,Exp1a,None
1007,3,10,0,0,1,839,NA,Exp1a,None
1007,3,11,1,1,1,555,NA,Exp1a,None
1007,3,12,1,1,1,662,NA,Exp1a,None
1007,3,13,1,1,1,458,NA,Exp1a,None
1007,3,14,1,0,1,789,NA,Exp1a,None
1007,3,15,0,1,1,599,NA,Exp1a,None
1007,3,16,1,0,1,803,NA,Exp1a,None
1007,3,17,2,1,1,694,NA,Exp1a,None
1007,3,18,2,0,1,778,NA,Exp1a,None
1007,3,19,0,0,1,741,NA,Exp1a,None
1007,3,20,0,0,1,665,NA,Exp1a,None
1007,3,21,0,1,1,596,NA,Exp1a,None
1007,3,22,1,1,1,679,NA,Exp1a,None
1007,3,23,2,1,1,619,NA,Exp1a,None
1007,3,24,2,0,1,798,NA,Exp1a,None
1007,3,25,2,0,1,698,NA,Exp1a,None
1007,3,26,0,0,1,669,NA,Exp1a,None
1007,3,27,0,1,1,577,NA,Exp1a,None
1007,3,28,1,1,1,604,NA,Exp1a,None
1007,3,29,2,0,1,799,NA,Exp1a,None
1007,3,30,2,1,1,763,NA,Exp1a,None
1007,3,31,1,0,1,614,NA,Exp1a,None
1007,3,32,0,1,1,578,NA,Exp1a,None
1007,3,33,1,1,1,581,NA,Exp1a,None
1007,3,34,1,0,1,585,NA,Exp1a,None
1007,3,35,2,1,1,844,NA,Exp1a,None
1007,3,36,0,0,0,734,NA,Exp1a,None
1007,3,37,0,0,1,818,NA,Exp1a,None
1007,3,38,1,0,1,749,NA,Exp1a,None
1007,3,39,2,1,1,705,NA,Exp1a,None
1007,3,40,0,1,1,676,NA,Exp1a,None
1007,3,41,2,1,0,679,NA,Exp1a,None
1007,3,42,1,0,1,779,NA,Exp1a,None
1007,3,43,1,1,1,694,NA,Exp1a,None
1007,3,44,0,0,1,586,NA,Exp1a,None
1007,3,45,2,0,1,637,NA,Exp1a,None
1007,3,46,2,0,1,761,NA,Exp1a,None
1007,3,47,1,1,1,748,NA,Exp1a,None
1007,3,48,0,1,1,895,NA,Exp1a,None
1007,3,49,0,1,1,659,NA,Exp1a,None
1007,3,50,2,0,1,734,NA,Exp1a,None
1007,3,51,1,0,1,714,NA,Exp1a,None
1007,3,52,2,1,1,733,NA,Exp1a,None
1007,3,53,2,0,1,689,NA,Exp1a,None
1007,3,54,0,0,1,668,NA,Exp1a,None
1007,3,55,2,1,1,743,NA,Exp1a,None
1007,3,56,0,0,1,650,NA,Exp1a,None
1007,3,57,1,0,1,629,NA,Exp1a,None
1007,3,58,0,1,1,545,NA,Exp1a,None
1007,3,59,1,1,1,668,NA,Exp1a,None
1007,3,60,1,1,1,712,NA,Exp1a,None
1007,4,1,1,0,1,869,NA,Exp1a,None
1007,4,2,2,0,1,712,NA,Exp1a,None
1007,4,3,1,1,1,660,NA,Exp1a,None
1007,4,4,2,1,1,775,NA,Exp1a,None
1007,4,5,0,0,1,627,NA,Exp1a,None
1007,4,6,1,1,1,630,NA,Exp1a,None
1007,4,7,0,0,1,681,NA,Exp1a,None
1007,4,8,2,1,1,701,NA,Exp1a,None
1007,4,9,0,1,1,704,NA,Exp1a,None
1007,4,10,2,0,1,652,NA,Exp1a,None
1007,4,11,0,1,1,598,NA,Exp1a,None
1007,4,13,1,0,1,861,NA,Exp1a,None
1007,4,14,2,1,1,736,NA,Exp1a,None
1007,4,15,2,1,0,940,NA,Exp1a,None
1007,4,16,2,0,1,855,NA,Exp1a,None
1007,4,17,0,1,1,611,NA,Exp1a,None
1007,4,18,0,0,1,814,NA,Exp1a,None
1007,4,19,1,0,1,873,NA,Exp1a,None
1007,4,20,0,1,1,733,NA,Exp1a,None
1007,4,21,1,1,1,528,NA,Exp1a,None
1007,4,22,1,1,1,492,NA,Exp1a,None
1007,4,23,0,0,1,639,NA,Exp1a,None
1007,4,24,2,0,1,651,NA,Exp1a,None
1007,4,25,0,1,1,526,NA,Exp1a,None
1007,4,26,0,0,1,641,NA,Exp1a,None
1007,4,27,0,1,1,613,NA,Exp1a,None
1007,4,28,1,0,1,720,NA,Exp1a,None
1007,4,29,1,0,1,692,NA,Exp1a,None
1007,4,30,1,1,1,647,NA,Exp1a,None
1007,4,31,2,1,1,834,NA,Exp1a,None
1007,4,32,2,0,1,573,NA,Exp1a,None
1007,4,33,1,1,1,664,NA,Exp1a,None
1007,4,34,0,0,1,676,NA,Exp1a,None
1007,4,35,2,1,1,703,NA,Exp1a,None
1007,4,36,2,0,1,691,NA,Exp1a,None
1007,4,37,1,0,1,622,NA,Exp1a,None
1007,4,38,2,0,1,626,NA,Exp1a,None
1007,4,39,2,1,1,677,NA,Exp1a,None
1007,4,40,0,1,1,728,NA,Exp1a,None
1007,4,41,2,0,1,676,NA,Exp1a,None
1007,4,42,1,1,1,583,NA,Exp1a,None
1007,4,43,1,1,1,443,NA,Exp1a,None
1007,4,44,0,0,1,558,NA,Exp1a,None
1007,4,45,0,0,1,625,NA,Exp1a,None
1007,4,46,2,1,1,765,NA,Exp1a,None
1007,4,47,0,1,1,704,NA,Exp1a,None
1007,4,48,1,0,1,756,NA,Exp1a,None
1007,4,49,0,0,1,671,NA,Exp1a,None
1007,4,50,1,0,1,715,NA,Exp1a,None
1007,4,51,1,1,1,598,NA,Exp1a,None
1007,4,52,2,1,1,720,NA,Exp1a,None
1007,4,53,0,0,0,556,NA,Exp1a,None
1007,4,54,2,0,1,759,NA,Exp1a,None
1007,4,55,2,0,1,707,NA,Exp1a,None
1007,4,56,0,1,1,590,NA,Exp1a,None
1007,4,57,1,1,1,730,NA,Exp1a,None
1007,4,58,0,1,1,741,NA,Exp1a,None
1007,4,59,2,1,1,744,NA,Exp1a,None
1007,4,60,1,0,1,668,NA,Exp1a,None
1007,5,1,0,0,1,761,NA,Exp1a,None
1007,5,2,0,1,1,885,NA,Exp1a,None
1007,5,3,2,1,1,736,NA,Exp1a,None
1007,5,4,1,0,1,675,NA,Exp1a,None
1007,5,5,1,1,1,623,NA,Exp1a,None
1007,5,6,0,0,1,650,NA,Exp1a,None
1007,5,7,1,1,1,621,NA,Exp1a,None
1007,5,8,2,0,1,768,NA,Exp1a,None
1007,5,9,2,0,1,788,NA,Exp1a,None
1007,5,10,1,0,1,727,NA,Exp1a,None
1007,5,11,2,1,1,738,NA,Exp1a,None
1007,5,12,0,1,1,574,NA,Exp1a,None
1007,5,13,0,0,1,713,NA,Exp1a,None
1007,5,14,2,1,1,661,NA,Exp1a,None
1007,5,15,1,0,1,672,NA,Exp1a,None
1007,5,16,0,1,1,588,NA,Exp1a,None
1007,5,17,1,1,1,647,NA,Exp1a,None
1007,5,18,1,0,1,634,NA,Exp1a,None
1007,5,19,2,0,1,710,NA,Exp1a,None
1007,5,20,0,0,1,617,NA,Exp1a,None
1007,5,21,1,1,1,645,NA,Exp1a,None
1007,5,22,0,1,1,608,NA,Exp1a,None
1007,5,23,2,0,0,588,NA,Exp1a,None
1007,5,24,2,1,1,767,NA,Exp1a,None
1007,5,25,0,1,1,794,NA,Exp1a,None
1007,5,26,0,0,1,590,NA,Exp1a,None
1007,5,27,0,0,1,689,NA,Exp1a,None
1007,5,28,1,1,1,660,NA,Exp1a,None
1007,5,29,0,1,1,639,NA,Exp1a,None
1007,5,30,2,0,1,730,NA,Exp1a,None
1007,5,31,1,0,1,734,NA,Exp1a,None
1007,5,32,2,1,1,713,NA,Exp1a,None
1007,5,33,1,0,1,653,NA,Exp1a,None
1007,5,34,1,1,1,704,NA,Exp1a,None
1007,5,35,2,0,1,604,NA,Exp1a,None
1007,5,36,2,1,1,735,NA,Exp1a,None
1007,5,37,0,1,1,658,NA,Exp1a,None
1007,5,38,1,0,1,606,NA,Exp1a,None
1007,5,39,2,0,1,777,NA,Exp1a,None
1007,5,40,0,0,1,717,NA,Exp1a,None
1007,5,41,2,1,1,768,NA,Exp1a,None
1007,5,42,2,0,1,644,NA,Exp1a,None
1007,5,43,1,0,1,671,NA,Exp1a,None
1007,5,44,0,1,1,554,NA,Exp1a,None
1007,5,45,2,1,0,654,NA,Exp1a,None
1007,5,46,1,1,1,881,NA,Exp1a,None
1007,5,47,1,1,0,653,NA,Exp1a,None
1007,5,48,0,0,1,735,NA,Exp1a,None
1007,5,49,2,0,1,787,NA,Exp1a,None
1007,5,50,0,1,1,574,NA,Exp1a,None
1007,5,52,2,0,1,925,NA,Exp1a,None
1007,5,53,1,0,1,696,NA,Exp1a,None
1007,5,54,1,1,1,988,NA,Exp1a,None
1007,5,55,1,1,1,479,NA,Exp1a,None
1007,5,56,0,0,1,714,NA,Exp1a,None
1007,5,57,2,1,1,774,NA,Exp1a,None
1007,5,58,0,1,1,761,NA,Exp1a,None
1007,5,59,0,0,1,605,NA,Exp1a,None
1007,5,60,1,0,1,704,NA,Exp1a,None
1007,6,1,0,0,1,766,NA,Exp1a,None
1007,6,2,1,0,1,793,NA,Exp1a,None
1007,6,3,1,1,1,1003,NA,Exp1a,None
1007,6,4,1,0,1,943,NA,Exp1a,None
1007,6,5,2,1,1,690,NA,Exp1a,None
1007,6,6,2,1,0,662,NA,Exp1a,None
1007,6,7,0,0,1,737,NA,Exp1a,None
1007,6,8,0,1,1,668,NA,Exp1a,None
1007,6,9,2,0,1,856,NA,Exp1a,None
1007,6,10,0,1,1,627,NA,Exp1a,None
1007,6,11,1,1,1,695,NA,Exp1a,None
1007,6,12,2,0,1,914,NA,Exp1a,None
1007,6,13,0,0,1,926,NA,Exp1a,None
1007,6,14,2,1,1,649,NA,Exp1a,None
1007,6,15,2,1,1,732,NA,Exp1a,None
1007,6,16,1,1,1,680,NA,Exp1a,None
1007,6,17,0,0,1,683,NA,Exp1a,None
1007,6,18,0,1,1,567,NA,Exp1a,None
1007,6,19,0,1,1,578,NA,Exp1a,None
1007,6,20,2,0,1,710,NA,Exp1a,None
1007,6,21,1,0,1,713,NA,Exp1a,None
1007,6,22,1,1,1,644,NA,Exp1a,None
1007,6,23,2,0,1,623,NA,Exp1a,None
1007,6,24,1,0,1,746,NA,Exp1a,None
1007,6,25,2,0,1,774,NA,Exp1a,None
1007,6,26,0,0,1,721,NA,Exp1a,None
1007,6,27,1,1,1,645,NA,Exp1a,None
1007,6,28,2,1,1,712,NA,Exp1a,None
1007,6,29,0,1,1,611,NA,Exp1a,None
1007,6,30,0,0,1,647,NA,Exp1a,None
1007,6,31,1,0,1,818,NA,Exp1a,None
1007,6,32,0,1,1,638,NA,Exp1a,None
1007,6,33,2,0,1,753,NA,Exp1a,None
1007,6,34,2,1,1,724,NA,Exp1a,None
1007,6,35,1,1,1,760,NA,Exp1a,None
1007,6,36,1,0,1,915,NA,Exp1a,None
1007,6,37,2,1,1,695,NA,Exp1a,None
1007,6,38,0,1,0,714,NA,Exp1a,None
1007,6,39,1,1,1,750,NA,Exp1a,None
1007,6,40,2,0,1,625,NA,Exp1a,None
1007,6,41,2,1,0,724,NA,Exp1a,None
1007,6,42,1,0,1,720,NA,Exp1a,None
1007,6,43,1,0,1,851,NA,Exp1a,None
1007,6,44,0,0,1,790,NA,Exp1a,None
1007,6,45,0,0,1,769,NA,Exp1a,None
1007,6,46,1,1,1,605,NA,Exp1a,None
1007,6,47,0,1,1,600,NA,Exp1a,None
1007,6,48,2,0,1,707,NA,Exp1a,None
1007,6,49,1,0,1,743,NA,Exp1a,None
1007,6,50,2,1,0,810,NA,Exp1a,None
1007,6,51,0,1,1,766,NA,Exp1a,None
1007,6,52,1,1,1,785,NA,Exp1a,None
1007,6,53,0,0,1,797,NA,Exp1a,None
1007,6,54,1,1,1,800,NA,Exp1a,None
1007,6,55,2,1,1,787,NA,Exp1a,None
1007,6,56,0,0,1,751,NA,Exp1a,None
1007,6,57,1,0,1,834,NA,Exp1a,None
1007,6,58,0,1,1,670,NA,Exp1a,None
1007,6,59,2,0,1,649,NA,Exp1a,None
1007,6,60,2,0,1,645,NA,Exp1a,None
1008,1,1,2,0,0,814,NA,Exp1a,None
1008,1,3,0,0,1,823,NA,Exp1a,None
1008,1,4,0,1,1,903,NA,Exp1a,None
1008,1,5,1,0,1,783,NA,Exp1a,None
1008,1,6,1,0,0,911,NA,Exp1a,None
1008,1,7,2,1,1,791,NA,Exp1a,None
1008,1,8,1,1,1,936,NA,Exp1a,None
1008,1,9,0,1,0,1048,NA,Exp1a,None
1008,1,10,1,1,1,712,NA,Exp1a,None
1008,1,11,2,0,0,1040,NA,Exp1a,None
1008,1,12,0,0,0,1008,NA,Exp1a,None
1008,1,13,0,0,1,656,NA,Exp1a,None
1008,1,14,0,0,0,881,NA,Exp1a,None
1008,1,15,2,1,1,1001,NA,Exp1a,None
1008,1,16,2,1,1,793,NA,Exp1a,None
1008,1,17,2,0,1,1017,NA,Exp1a,None
1008,1,18,1,1,1,792,NA,Exp1a,None
1008,1,19,0,1,1,872,NA,Exp1a,None
1008,1,20,2,0,1,809,NA,Exp1a,None
1008,1,21,1,0,1,1066,NA,Exp1a,None
1008,1,22,1,1,1,755,NA,Exp1a,None
1008,1,23,1,0,1,955,NA,Exp1a,None
1008,1,24,0,1,0,795,NA,Exp1a,None
1008,1,25,0,0,1,1019,NA,Exp1a,None
1008,1,27,1,0,0,852,NA,Exp1a,None
1008,1,28,1,1,1,820,NA,Exp1a,None
1008,1,29,2,1,1,860,NA,Exp1a,None
1008,1,30,0,1,1,644,NA,Exp1a,None
1008,1,31,1,0,1,1060,NA,Exp1a,None
1008,1,32,2,0,1,956,NA,Exp1a,None
1008,1,33,1,1,1,725,NA,Exp1a,None
1008,1,34,0,0,1,885,NA,Exp1a,None
1008,1,35,2,1,1,901,NA,Exp1a,None
1008,1,36,2,0,1,901,NA,Exp1a,None
1008,1,37,0,1,1,909,NA,Exp1a,None
1008,1,38,0,0,0,1093,NA,Exp1a,None
1008,1,39,2,1,1,1029,NA,Exp1a,None
1008,1,40,1,1,1,789,NA,Exp1a,None
1008,1,41,0,0,0,805,NA,Exp1a,None
1008,1,42,2,0,1,925,NA,Exp1a,None
1008,1,43,2,1,1,845,NA,Exp1a,None
1008,1,44,1,1,1,725,NA,Exp1a,None
1008,1,45,1,0,1,838,NA,Exp1a,None
1008,1,46,0,1,1,918,NA,Exp1a,None
1008,1,47,2,0,1,870,NA,Exp1a,None
1008,1,48,1,0,1,886,NA,Exp1a,None
1008,1,49,2,1,0,974,NA,Exp1a,None
1008,1,51,1,0,0,927,NA,Exp1a,None
1008,1,52,2,0,1,992,NA,Exp1a,None
1008,1,53,2,1,1,977,NA,Exp1a,None
1008,1,54,0,0,0,1017,NA,Exp1a,None
1008,1,55,1,0,0,929,NA,Exp1a,None
1008,1,56,0,0,0,777,NA,Exp1a,None
1008,1,57,2,0,1,777,NA,Exp1a,None
1008,1,58,1,1,1,706,NA,Exp1a,None
1008,1,59,1,1,1,657,NA,Exp1a,None
1008,1,60,0,1,1,809,NA,Exp1a,None
1008,2,2,2,0,0,770,NA,Exp1a,None
1008,2,3,2,1,1,778,NA,Exp1a,None
1008,2,5,2,1,1,819,NA,Exp1a,None
1008,2,6,0,0,1,795,NA,Exp1a,None
1008,2,7,0,1,1,867,NA,Exp1a,None
1008,2,8,1,1,1,699,NA,Exp1a,None
1008,2,9,2,0,1,771,NA,Exp1a,None
1008,2,10,1,0,1,956,NA,Exp1a,None
1008,2,11,1,0,1,884,NA,Exp1a,None
1008,2,12,0,1,0,852,NA,Exp1a,None
1008,2,13,0,0,1,884,NA,Exp1a,None
1008,2,15,2,0,1,921,NA,Exp1a,None
1008,2,16,1,0,1,914,NA,Exp1a,None
1008,2,17,2,1,1,850,NA,Exp1a,None
1008,2,18,1,1,1,1050,NA,Exp1a,None
1008,2,19,0,1,1,874,NA,Exp1a,None
1008,2,20,0,0,1,842,NA,Exp1a,None
1008,2,21,1,0,1,938,NA,Exp1a,None
1008,2,22,2,1,1,867,NA,Exp1a,None
1008,2,23,0,1,1,1051,NA,Exp1a,None
1008,2,24,1,1,1,659,NA,Exp1a,None
1008,2,25,2,1,1,627,NA,Exp1a,None
1008,2,26,2,1,1,803,NA,Exp1a,None
1008,2,27,1,1,1,675,NA,Exp1a,None
1008,2,28,1,1,1,708,NA,Exp1a,None
1008,2,29,1,0,1,700,NA,Exp1a,None
1008,2,30,0,0,0,948,NA,Exp1a,None
1008,2,31,0,1,1,852,NA,Exp1a,None
1008,2,32,1,0,1,1028,NA,Exp1a,None
1008,2,33,0,0,1,932,NA,Exp1a,None
1008,2,34,2,0,1,820,NA,Exp1a,None
1008,2,35,2,0,1,757,NA,Exp1a,None
1008,2,36,0,1,0,804,NA,Exp1a,None
1008,2,37,2,1,1,1092,NA,Exp1a,None
1008,2,38,0,0,1,788,NA,Exp1a,None
1008,2,40,1,1,1,698,NA,Exp1a,None
1008,2,41,1,1,1,571,NA,Exp1a,None
1008,2,42,2,0,1,763,NA,Exp1a,None
1008,2,43,2,0,1,891,NA,Exp1a,None
1008,2,44,1,0,0,875,NA,Exp1a,None
1008,2,45,2,1,1,643,NA,Exp1a,None
1008,2,46,0,0,1,739,NA,Exp1a,None
1008,2,48,1,0,0,628,NA,Exp1a,None
1008,2,49,1,0,1,524,NA,Exp1a,None
1008,2,50,1,0,1,964,NA,Exp1a,None
1008,2,51,1,1,1,780,NA,Exp1a,None
1008,2,52,0,0,1,892,NA,Exp1a,None
1008,2,53,1,1,1,669,NA,Exp1a,None
1008,2,54,2,1,1,933,NA,Exp1a,None
1008,2,55,0,1,1,709,NA,Exp1a,None
1008,2,56,2,1,1,804,NA,Exp1a,None
1008,2,57,2,0,1,956,NA,Exp1a,None
1008,2,58,0,1,1,836,NA,Exp1a,None
1008,2,60,0,0,1,941,NA,Exp1a,None
1008,3,1,2,0,1,872,NA,Exp1a,None
1008,3,2,1,0,1,824,NA,Exp1a,None
1008,3,3,1,1,1,880,NA,Exp1a,None
1008,3,4,0,1,1,872,NA,Exp1a,None
1008,3,5,0,0,1,777,NA,Exp1a,None
1008,3,6,2,1,1,794,NA,Exp1a,None
1008,3,7,1,1,1,643,NA,Exp1a,None
1008,3,8,0,1,1,683,NA,Exp1a,None
1008,3,9,2,0,1,755,NA,Exp1a,None
1008,3,10,2,1,1,667,NA,Exp1a,None
1008,3,11,0,0,0,954,NA,Exp1a,None
1008,3,12,1,0,1,923,NA,Exp1a,None
1008,3,13,2,0,1,795,NA,Exp1a,None
1008,3,14,2,1,1,1075,NA,Exp1a,None
1008,3,15,0,1,1,907,NA,Exp1a,None
1008,3,16,1,0,1,923,NA,Exp1a,None
1008,3,17,2,1,0,891,NA,Exp1a,None
1008,3,18,1,1,1,572,NA,Exp1a,None
1008,3,19,1,1,1,692,NA,Exp1a,None
1008,3,20,1,0,1,836,NA,Exp1a,None
1008,3,21,2,0,1,698,NA,Exp1a,None
1008,3,22,0,0,1,826,NA,Exp1a,None
1008,3,23,0,1,1,906,NA,Exp1a,None
1008,3,24,0,0,1,747,NA,Exp1a,None
1008,3,25,2,0,1,891,NA,Exp1a,None
1008,3,26,1,0,0,707,NA,Exp1a,None
1008,3,27,1,1,1,611,NA,Exp1a,None
1008,3,28,2,0,0,507,NA,Exp1a,None
1008,3,29,1,1,1,515,NA,Exp1a,None
1008,3,30,0,0,0,812,NA,Exp1a,None
1008,3,31,0,1,1,723,NA,Exp1a,None
1008,3,32,1,0,1,859,NA,Exp1a,None
1008,3,33,2,1,1,899,NA,Exp1a,None
1008,3,34,0,0,1,811,NA,Exp1a,None
1008,3,35,0,1,1,931,NA,Exp1a,None
1008,3,36,2,1,1,836,NA,Exp1a,None
1008,3,37,0,1,1,900,NA,Exp1a,None
1008,3,38,1,0,1,780,NA,Exp1a,None
1008,3,39,2,0,0,956,NA,Exp1a,None
1008,3,40,0,0,1,940,NA,Exp1a,None
1008,3,41,2,1,1,684,NA,Exp1a,None
1008,3,42,1,1,1,677,NA,Exp1a,None
1008,3,43,0,0,1,765,NA,Exp1a,None
1008,3,44,2,0,1,821,NA,Exp1a,None
1008,3,45,0,1,1,797,NA,Exp1a,None
1008,3,46,1,0,1,765,NA,Exp1a,None
1008,3,47,1,1,1,635,NA,Exp1a,None
1008,3,48,2,1,1,796,NA,Exp1a,None
1008,3,49,0,0,1,756,NA,Exp1a,None
1008,3,50,1,1,1,644,NA,Exp1a,None
1008,3,51,1,0,1,804,NA,Exp1a,None
1008,3,52,0,1,0,788,NA,Exp1a,None
1008,3,53,2,0,1,803,NA,Exp1a,None
1008,3,54,2,1,1,819,NA,Exp1a,None
1008,3,55,0,0,1,757,NA,Exp1a,None
1008,3,56,2,0,0,782,NA,Exp1a,None
1008,3,57,2,1,1,838,NA,Exp1a,None
1008,3,58,1,1,1,710,NA,Exp1a,None
1008,3,59,1,0,1,758,NA,Exp1a,None
1008,3,60,0,1,1,966,NA,Exp1a,None
1008,4,2,0,1,1,818,NA,Exp1a,None
1008,4,3,1,1,1,642,NA,Exp1a,None
1008,4,4,0,0,1,666,NA,Exp1a,None
1008,4,5,1,0,1,818,NA,Exp1a,None
1008,4,6,2,1,1,754,NA,Exp1a,None
1008,4,7,2,0,1,930,NA,Exp1a,None
1008,4,8,0,0,1,986,NA,Exp1a,None
1008,4,9,2,1,1,810,NA,Exp1a,None
1008,4,10,1,1,1,706,NA,Exp1a,None
1008,4,11,2,0,1,682,NA,Exp1a,None
1008,4,12,0,1,1,674,NA,Exp1a,None
1008,4,13,2,1,1,779,NA,Exp1a,None
1008,4,14,1,1,1,707,NA,Exp1a,None
1008,4,15,1,1,0,947,NA,Exp1a,None
1008,4,16,2,0,1,843,NA,Exp1a,None
1008,4,17,2,0,1,899,NA,Exp1a,None
1008,4,18,0,1,1,1051,NA,Exp1a,None
1008,4,19,0,0,1,892,NA,Exp1a,None
1008,4,21,0,1,0,844,NA,Exp1a,None
1008,4,22,2,1,1,988,NA,Exp1a,None
1008,4,23,1,0,0,796,NA,Exp1a,None
1008,4,24,1,0,1,764,NA,Exp1a,None
1008,4,25,2,1,1,885,NA,Exp1a,None
1008,4,26,2,0,1,789,NA,Exp1a,None
1008,4,27,1,1,1,709,NA,Exp1a,None
1008,4,28,2,1,1,804,NA,Exp1a,None
1008,4,29,0,0,1,1044,NA,Exp1a,None
1008,4,30,2,0,1,804,NA,Exp1a,None
1008,4,31,0,1,1,693,NA,Exp1a,None
1008,4,32,1,0,1,749,NA,Exp1a,None
1008,4,33,1,0,0,701,NA,Exp1a,None
1008,4,34,0,1,1,1005,NA,Exp1a,None
1008,4,35,0,0,1,765,NA,Exp1a,None
1008,4,36,1,1,1,621,NA,Exp1a,None
1008,4,37,0,1,1,958,NA,Exp1a,None
1008,4,38,2,1,1,790,NA,Exp1a,None
1008,4,39,0,0,1,1030,NA,Exp1a,None
1008,4,40,1,1,1,614,NA,Exp1a,None
1008,4,41,0,1,1,806,NA,Exp1a,None
1008,4,42,1,1,1,790,NA,Exp1a,None
1008,4,43,2,0,1,975,NA,Exp1a,None
1008,4,44,1,0,1,887,NA,Exp1a,None
1008,4,45,2,0,1,855,NA,Exp1a,None
1008,4,46,2,1,1,671,NA,Exp1a,None
1008,4,47,0,0,1,711,NA,Exp1a,None
1008,4,48,1,0,1,863,NA,Exp1a,None
1008,4,49,2,1,1,870,NA,Exp1a,None
1008,4,50,2,0,1,783,NA,Exp1a,None
1008,4,51,2,1,0,839,NA,Exp1a,None
1008,4,52,1,0,1,919,NA,Exp1a,None
1008,4,53,2,0,1,959,NA,Exp1a,None
1008,4,54,0,0,1,1015,NA,Exp1a,None
1008,4,55,1,0,1,839,NA,Exp1a,None
1008,4,56,0,0,1,856,NA,Exp1a,None
1008,4,57,0,1,1,920,NA,Exp1a,None
1008,4,58,0,1,1,944,NA,Exp1a,None
1008,4,59,1,1,1,704,NA,Exp1a,None
1008,4,60,1,1,1,648,NA,Exp1a,None
1008,5,1,2,0,1,777,NA,Exp1a,None
1008,5,2,1,0,1,826,NA,Exp1a,None
1008,5,3,0,1,1,858,NA,Exp1a,None
1008,5,4,1,1,1,665,NA,Exp1a,None
1008,5,5,0,1,1,793,NA,Exp1a,None
1008,5,6,2,1,0,881,NA,Exp1a,None
1008,5,7,1,0,1,945,NA,Exp1a,None
1008,5,8,2,1,1,962,NA,Exp1a,None
1008,5,9,2,0,1,1002,NA,Exp1a,None
1008,5,10,0,0,1,986,NA,Exp1a,None
1008,5,11,1,1,1,634,NA,Exp1a,None
1008,5,12,0,0,1,786,NA,Exp1a,None
1008,5,13,0,0,1,970,NA,Exp1a,None
1008,5,14,1,0,1,843,NA,Exp1a,None
1008,5,15,0,0,1,907,NA,Exp1a,None
1008,5,16,1,1,1,571,NA,Exp1a,None
1008,5,17,2,1,1,923,NA,Exp1a,None
1008,5,18,1,1,0,811,NA,Exp1a,None
1008,5,19,2,0,1,931,NA,Exp1a,None
1008,5,20,1,0,1,844,NA,Exp1a,None
1008,5,21,2,1,1,948,NA,Exp1a,None
1008,5,22,0,1,1,1012,NA,Exp1a,None
1008,5,23,2,0,1,1044,NA,Exp1a,None
1008,5,24,0,1,1,939,NA,Exp1a,None
1008,5,25,1,1,1,851,NA,Exp1a,None
1008,5,26,2,1,1,1044,NA,Exp1a,None
1008,5,27,2,1,1,1004,NA,Exp1a,None
1008,5,28,1,0,1,964,NA,Exp1a,None
1008,5,29,1,1,1,524,NA,Exp1a,None
1008,5,30,1,0,1,692,NA,Exp1a,None
1008,5,31,0,1,1,852,NA,Exp1a,None
1008,5,32,2,0,1,1077,NA,Exp1a,None
1008,5,33,2,0,1,854,NA,Exp1a,None
1008,5,34,0,0,1,735,NA,Exp1a,None
1008,5,35,0,0,1,1055,NA,Exp1a,None
1008,5,36,0,1,1,751,NA,Exp1a,None
1008,5,37,1,0,1,775,NA,Exp1a,None
1008,5,38,1,1,1,560,NA,Exp1a,None
1008,5,39,0,1,1,881,NA,Exp1a,None
1008,5,40,1,0,1,826,NA,Exp1a,None
1008,5,41,2,1,1,874,NA,Exp1a,None
1008,5,42,0,0,1,842,NA,Exp1a,None
1008,5,43,2,0,1,930,NA,Exp1a,None
1008,5,44,0,0,1,803,NA,Exp1a,None
1008,5,45,2,0,1,1018,NA,Exp1a,None
1008,5,46,0,1,0,690,NA,Exp1a,None
1008,5,47,1,1,1,578,NA,Exp1a,None
1008,5,48,2,1,1,770,NA,Exp1a,None
1008,5,49,1,1,1,986,NA,Exp1a,None
1008,5,50,1,1,1,571,NA,Exp1a,None
1008,5,51,2,0,1,699,NA,Exp1a,None
1008,5,52,2,0,1,875,NA,Exp1a,None
1008,5,54,1,0,1,939,NA,Exp1a,None
1008,5,55,2,1,1,811,NA,Exp1a,None
1008,5,56,0,1,1,907,NA,Exp1a,None
1008,5,57,2,1,1,757,NA,Exp1a,None
1008,5,58,1,0,1,678,NA,Exp1a,None
1008,5,59,0,1,1,734,NA,Exp1a,None
1008,5,60,0,0,1,750,NA,Exp1a,None
1008,6,1,2,0,1,814,NA,Exp1a,None
1008,6,2,1,0,1,854,NA,Exp1a,None
1008,6,3,2,0,1,783,NA,Exp1a,None
1008,6,4,1,1,1,559,NA,Exp1a,None
1008,6,5,0,1,1,991,NA,Exp1a,None
1008,6,6,1,0,1,863,NA,Exp1a,None
1008,6,7,0,0,0,991,NA,Exp1a,None
1008,6,8,0,1,1,815,NA,Exp1a,None
1008,6,9,1,1,1,696,NA,Exp1a,None
1008,6,10,2,1,1,816,NA,Exp1a,None
1008,6,11,0,0,1,776,NA,Exp1a,None
1008,6,12,2,1,1,1000,NA,Exp1a,None
1008,6,14,1,0,1,846,NA,Exp1a,None
1008,6,15,1,1,1,1071,NA,Exp1a,None
1008,6,16,0,1,1,855,NA,Exp1a,None
1008,6,17,1,0,1,783,NA,Exp1a,None
1008,6,18,2,0,1,775,NA,Exp1a,None
1008,6,19,2,0,1,871,NA,Exp1a,None
1008,6,20,1,1,1,646,NA,Exp1a,None
1008,6,21,0,1,1,727,NA,Exp1a,None
1008,6,22,2,1,1,759,NA,Exp1a,None
1008,6,23,0,0,1,671,NA,Exp1a,None
1008,6,24,2,1,1,759,NA,Exp1a,None
1008,6,25,2,0,1,855,NA,Exp1a,None
1008,6,26,2,0,1,911,NA,Exp1a,None
1008,6,27,1,0,1,952,NA,Exp1a,None
1008,6,28,0,0,1,920,NA,Exp1a,None
1008,6,29,0,1,0,696,NA,Exp1a,None
1008,6,30,1,1,1,592,NA,Exp1a,None
1008,6,31,2,1,1,696,NA,Exp1a,None
1008,6,32,0,1,1,848,NA,Exp1a,None
1008,6,33,0,0,1,817,NA,Exp1a,None
1008,6,34,2,1,1,705,NA,Exp1a,None
1008,6,35,1,0,1,857,NA,Exp1a,None
1008,6,36,1,1,1,673,NA,Exp1a,None
1008,6,37,0,1,1,761,NA,Exp1a,None
1008,6,38,1,0,1,1041,NA,Exp1a,None
1008,6,39,0,1,1,842,NA,Exp1a,None
1008,6,40,2,0,1,818,NA,Exp1a,None
1008,6,41,0,0,1,1089,NA,Exp1a,None
1008,6,42,2,0,1,905,NA,Exp1a,None
1008,6,43,2,1,1,993,NA,Exp1a,None
1008,6,44,1,0,1,897,NA,Exp1a,None
1008,6,45,1,1,1,746,NA,Exp1a,None
1008,6,46,0,0,1,658,NA,Exp1a,None
1008,6,47,2,1,1,778,NA,Exp1a,None
1008,6,48,1,1,1,834,NA,Exp1a,None
1008,6,49,2,1,1,730,NA,Exp1a,None
1008,6,50,0,0,1,738,NA,Exp1a,None
1008,6,51,1,0,1,803,NA,Exp1a,None
1008,6,52,0,1,1,907,NA,Exp1a,None
1008,6,53,2,0,1,731,NA,Exp1a,None
1008,6,54,0,1,1,835,NA,Exp1a,None
1008,6,55,1,1,1,723,NA,Exp1a,None
1008,6,56,2,0,1,963,NA,Exp1a,None
1008,6,57,0,0,1,780,NA,Exp1a,None
1008,6,58,1,1,1,573,NA,Exp1a,None
1008,6,59,1,0,1,702,NA,Exp1a,None
1008,6,60,2,1,1,766,NA,Exp1a,None
1009,1,1,2,1,1,759,NA,Exp1a,None
1009,1,2,2,0,0,599,NA,Exp1a,None
1009,1,3,1,1,1,1048,NA,Exp1a,None
1009,1,4,0,1,0,664,NA,Exp1a,None
1009,1,5,1,1,1,536,NA,Exp1a,None
1009,1,6,1,0,0,592,NA,Exp1a,None
1009,1,7,0,0,1,976,NA,Exp1a,None
1009,1,9,0,1,1,584,NA,Exp1a,None
1009,1,10,2,1,1,480,NA,Exp1a,None
1009,1,11,2,0,0,840,NA,Exp1a,None
1009,1,13,2,1,1,1064,NA,Exp1a,None
1009,1,14,0,0,1,616,NA,Exp1a,None
1009,1,15,1,1,1,625,NA,Exp1a,None
1009,1,16,1,0,1,449,NA,Exp1a,None
1009,1,17,1,0,0,425,NA,Exp1a,None
1009,1,18,2,0,1,441,NA,Exp1a,None
1009,1,19,0,1,1,777,NA,Exp1a,None
1009,1,20,2,1,0,473,NA,Exp1a,None
1009,1,21,0,1,1,402,NA,Exp1a,None
1009,1,22,0,0,1,394,NA,Exp1a,None
1009,1,23,1,1,1,346,NA,Exp1a,None
1009,1,24,2,0,1,466,NA,Exp1a,None
1009,1,25,2,1,1,450,NA,Exp1a,None
1009,1,26,0,1,0,322,NA,Exp1a,None
1009,1,27,2,0,0,307,NA,Exp1a,None
1009,1,29,0,0,1,315,NA,Exp1a,None
1009,1,30,1,0,0,347,NA,Exp1a,None
1009,1,31,1,0,1,282,NA,Exp1a,None
1009,1,32,2,0,0,514,NA,Exp1a,None
1009,1,33,1,1,0,459,NA,Exp1a,None
1009,1,34,2,1,0,355,NA,Exp1a,None
1009,1,35,1,1,1,515,NA,Exp1a,None
1009,1,36,0,0,0,515,NA,Exp1a,None
1009,1,37,2,0,0,915,NA,Exp1a,None
1009,1,38,2,1,1,859,NA,Exp1a,None
1009,1,39,0,0,1,524,NA,Exp1a,None
1009,1,40,0,0,1,821,NA,Exp1a,None
1009,1,41,2,0,0,1022,NA,Exp1a,None
1009,1,42,1,0,1,510,NA,Exp1a,None
1009,1,43,0,1,0,454,NA,Exp1a,None
1009,1,44,1,0,0,430,NA,Exp1a,None
1009,1,46,0,1,1,735,NA,Exp1a,None
1009,1,49,1,1,1,447,NA,Exp1a,None
1009,1,54,2,1,0,215,NA,Exp1a,None
1009,1,55,2,1,1,271,NA,Exp1a,None
1009,1,56,1,1,0,399,NA,Exp1a,None
1009,1,57,0,0,0,319,NA,Exp1a,None
1009,1,58,1,0,0,400,NA,Exp1a,None
1009,1,59,2,0,1,728,NA,Exp1a,None
1009,2,1,1,1,1,1035,NA,Exp1a,None
1009,2,2,0,0,1,681,NA,Exp1a,None
1009,2,3,2,0,1,961,NA,Exp1a,None
1009,2,4,2,0,1,602,NA,Exp1a,None
1009,2,5,1,0,1,441,NA,Exp1a,None
1009,2,6,0,1,0,513,NA,Exp1a,None
1009,2,7,1,0,0,537,NA,Exp1a,None
1009,2,8,1,1,0,593,NA,Exp1a,None
1009,2,9,2,1,0,905,NA,Exp1a,None
1009,2,10,2,1,1,770,NA,Exp1a,None
1009,2,11,0,0,1,770,NA,Exp1a,None
1009,2,12,0,1,1,626,NA,Exp1a,None
1009,2,13,1,0,1,850,NA,Exp1a,None
1009,2,14,2,1,1,842,NA,Exp1a,None
1009,2,15,2,1,0,554,NA,Exp1a,None
1009,2,16,0,1,1,523,NA,Exp1a,None
1009,2,17,1,1,0,771,NA,Exp1a,None
1009,2,18,2,0,1,1027,NA,Exp1a,None
1009,2,19,0,0,0,1051,NA,Exp1a,None
1009,2,22,0,0,0,306,NA,Exp1a,None
1009,2,23,1,1,0,410,NA,Exp1a,None
1009,2,24,0,1,1,322,NA,Exp1a,None
1009,2,25,0,0,0,610,NA,Exp1a,None
1009,2,26,0,1,0,562,NA,Exp1a,None
1009,2,27,2,1,1,561,NA,Exp1a,None
1009,2,28,1,0,1,698,NA,Exp1a,None
1009,2,29,2,0,1,850,NA,Exp1a,None
1009,2,30,1,1,1,698,NA,Exp1a,None
1009,2,31,0,0,1,530,NA,Exp1a,None
1009,2,32,1,1,1,658,NA,Exp1a,None
1009,2,33,2,1,0,538,NA,Exp1a,None
1009,2,34,2,0,0,514,NA,Exp1a,None
1009,2,35,0,1,1,900,NA,Exp1a,None
1009,2,36,1,0,1,885,NA,Exp1a,None
1009,2,37,2,0,0,837,NA,Exp1a,None
1009,2,38,0,1,0,749,NA,Exp1a,None
1009,2,42,0,0,0,390,NA,Exp1a,None
1009,2,43,1,1,0,430,NA,Exp1a,None
1009,2,44,1,0,0,566,NA,Exp1a,None
1009,2,47,0,0,0,374,NA,Exp1a,None
1009,2,48,1,0,1,318,NA,Exp1a,None
1009,2,49,0,0,1,1094,NA,Exp1a,None
1009,2,50,2,1,1,734,NA,Exp1a,None
1009,2,51,1,1,1,790,NA,Exp1a,None
1009,2,52,2,0,1,494,NA,Exp1a,None
1009,2,53,0,0,0,567,NA,Exp1a,None
1009,2,54,1,1,1,895,NA,Exp1a,None
1009,2,55,0,1,0,687,NA,Exp1a,None
1009,2,56,1,0,0,839,NA,Exp1a,None
1009,2,57,0,1,1,927,NA,Exp1a,None
1009,2,58,1,0,0,1079,NA,Exp1a,None
1009,2,59,2,0,1,960,NA,Exp1a,None
1009,2,60,2,1,1,896,NA,Exp1a,None
1009,3,2,0,0,1,1002,NA,Exp1a,None
1009,3,3,2,1,1,658,NA,Exp1a,None
1009,3,4,2,1,1,794,NA,Exp1a,None
1009,3,5,1,1,1,611,NA,Exp1a,None
1009,3,6,0,1,0,1019,NA,Exp1a,None
1009,3,7,1,0,1,947,NA,Exp1a,None
1009,3,8,2,0,0,587,NA,Exp1a,None
1009,3,9,0,1,1,739,NA,Exp1a,None
1009,3,10,1,1,1,811,NA,Exp1a,None
1009,3,11,1,0,0,724,NA,Exp1a,None
1009,3,12,2,0,1,964,NA,Exp1a,None
1009,3,13,1,0,1,788,NA,Exp1a,None
1009,3,14,0,0,0,716,NA,Exp1a,None
1009,3,15,1,0,1,876,NA,Exp1a,None
1009,3,16,0,1,1,796,NA,Exp1a,None
1009,3,18,1,1,1,805,NA,Exp1a,None
1009,3,19,2,0,1,709,NA,Exp1a,None
1009,3,20,0,1,1,701,NA,Exp1a,None
1009,3,21,2,1,0,741,NA,Exp1a,None
1009,3,22,1,1,1,773,NA,Exp1a,None
1009,3,23,2,1,1,837,NA,Exp1a,None
1009,3,24,2,0,0,909,NA,Exp1a,None
1009,3,25,0,0,1,861,NA,Exp1a,None
1009,3,27,1,1,1,797,NA,Exp1a,None
1009,3,28,2,1,0,517,NA,Exp1a,None
1009,3,29,1,0,1,902,NA,Exp1a,None
1009,3,30,0,1,1,862,NA,Exp1a,None
1009,3,33,1,1,1,382,NA,Exp1a,None
1009,3,34,2,0,1,774,NA,Exp1a,None
1009,3,35,2,0,1,830,NA,Exp1a,None
1009,3,36,1,0,0,840,NA,Exp1a,None
1009,3,37,0,1,1,1017,NA,Exp1a,None
1009,3,38,2,0,1,681,NA,Exp1a,None
1009,3,39,1,1,1,721,NA,Exp1a,None
1009,3,40,1,0,1,1097,NA,Exp1a,None
1009,3,41,2,1,1,641,NA,Exp1a,None
1009,3,42,0,0,1,850,NA,Exp1a,None
1009,3,43,1,0,1,929,NA,Exp1a,None
1009,3,44,2,0,1,977,NA,Exp1a,None
1009,3,45,0,1,1,969,NA,Exp1a,None
1009,3,46,2,1,1,817,NA,Exp1a,None
1009,3,47,1,1,1,929,NA,Exp1a,None
1009,3,48,0,0,1,706,NA,Exp1a,None
1009,3,50,2,1,1,610,NA,Exp1a,None
1009,3,51,1,0,0,746,NA,Exp1a,None
1009,3,52,0,1,0,666,NA,Exp1a,None
1009,3,53,2,0,0,674,NA,Exp1a,None
1009,3,54,1,0,1,955,NA,Exp1a,None
1009,3,55,2,1,0,771,NA,Exp1a,None
1009,3,56,0,1,1,1019,NA,Exp1a,None
1009,3,58,0,0,0,267,NA,Exp1a,None
1009,3,59,1,1,1,491,NA,Exp1a,None
1009,4,1,1,0,1,687,NA,Exp1a,None
1009,4,2,2,0,0,856,NA,Exp1a,None
1009,4,3,0,1,0,816,NA,Exp1a,None
1009,4,4,2,1,1,808,NA,Exp1a,None
1009,4,5,2,0,1,1032,NA,Exp1a,None
1009,4,6,0,1,1,849,NA,Exp1a,None
1009,4,7,0,0,1,641,NA,Exp1a,None
1009,4,8,1,1,1,625,NA,Exp1a,None
1009,4,9,1,0,1,721,NA,Exp1a,None
1009,4,10,2,1,1,609,NA,Exp1a,None
1009,4,11,1,1,1,721,NA,Exp1a,None
1009,4,12,0,0,1,762,NA,Exp1a,None
1009,4,13,1,0,0,546,NA,Exp1a,None
1009,4,14,0,0,1,642,NA,Exp1a,None
1009,4,15,2,0,0,746,NA,Exp1a,None
1009,4,18,1,0,0,355,NA,Exp1a,None
1009,4,19,1,1,1,794,NA,Exp1a,None
1009,4,20,0,0,1,546,NA,Exp1a,None
1009,4,21,1,1,1,538,NA,Exp1a,None
1009,4,22,2,0,1,642,NA,Exp1a,None
1009,4,23,2,1,1,610,NA,Exp1a,None
1009,4,24,2,1,0,611,NA,Exp1a,None
1009,4,25,1,1,1,635,NA,Exp1a,None
1009,4,26,1,0,0,443,NA,Exp1a,None
1009,4,27,1,1,1,651,NA,Exp1a,None
1009,4,28,2,1,0,571,NA,Exp1a,None
1009,4,29,0,1,1,675,NA,Exp1a,None
1009,4,30,1,0,1,1020,NA,Exp1a,None
1009,4,31,0,1,1,1084,NA,Exp1a,None
1009,4,32,0,0,1,1012,NA,Exp1a,None
1009,4,35,2,1,1,420,NA,Exp1a,None
1009,4,37,2,0,0,581,NA,Exp1a,None
1009,4,38,0,0,0,677,NA,Exp1a,None
1009,4,39,1,0,0,836,NA,Exp1a,None
1009,4,40,2,1,0,676,NA,Exp1a,None
1009,4,41,0,1,1,916,NA,Exp1a,None
1009,4,42,1,1,1,685,NA,Exp1a,None
1009,4,43,0,0,1,693,NA,Exp1a,None
1009,4,44,0,1,1,805,NA,Exp1a,None
1009,4,45,2,0,1,717,NA,Exp1a,None
1009,4,46,2,1,1,725,NA,Exp1a,None
1009,4,47,1,0,0,773,NA,Exp1a,None
1009,4,48,1,1,1,702,NA,Exp1a,None
1009,4,49,2,0,1,630,NA,Exp1a,None
1009,4,50,0,1,0,838,NA,Exp1a,None
1009,4,51,2,1,1,774,NA,Exp1a,None
1009,4,52,0,1,1,846,NA,Exp1a,None
1009,4,53,2,1,1,774,NA,Exp1a,None
1009,4,54,1,1,1,718,NA,Exp1a,None
1009,4,55,0,0,1,816,NA,Exp1a,None
1009,4,56,1,0,0,721,NA,Exp1a,None
1009,4,57,1,0,1,1025,NA,Exp1a,None
1009,4,59,0,0,1,913,NA,Exp1a,None
1009,4,60,1,1,1,648,NA,Exp1a,None
1009,5,1,1,1,1,1028,NA,Exp1a,None
1009,5,2,1,1,1,580,NA,Exp1a,None
1009,5,3,0,0,1,628,NA,Exp1a,None
1009,5,4,1,0,1,740,NA,Exp1a,None
1009,5,5,2,1,1,652,NA,Exp1a,None
